timestamp2001_ms,roll,pitch,yaw,rotX,rotY,rotZ,accX,accY,accZ,gravX,gravY,gravZ
455616242180.318,-0.268757911224372,0.0164277500936863,0.123094821247318,0.0209636613726616,-0.0646372362971306,-0.0456418395042419,-0.0304813981056213,-0.0555605329573154,0.00696212099865079,-0.263524949550629,-0.122784197330475,-0.956806480884552
455616242190.318,-0.269730585023635,0.0160557642036699,0.123713769700171,0.0615352988243103,-0.110241435468197,-0.0541506372392178,-0.0304866917431355,-0.0480950959026814,0.00135237094946206,-0.264435172080994,-0.123398438096046,-0.956476271152496
455616242200.351,-0.271110166765791,0.0157604433159244,0.124805385325952,0.108517669141293,-0.15581551194191,-0.0573427006602287,-0.0243818610906601,-0.0409388989210129,0.00151242571882904,-0.265718251466751,-0.12448163330555,-0.955980181694031
455616242210.359,-0.273008054702158,0.0156264159155246,0.126264609014464,0.144899591803551,-0.200314447283745,-0.0498400442302227,-0.0235175266861916,-0.0431685261428356,-0.00742454035207629,-0.267482846975327,-0.125929370522499,-0.955298244953156
455616242220.359,-0.278763571025785,0.0160711769324582,0.132999839156013,0.154541566967964,-0.208791837096214,-0.0466435067355633,-0.0269455816596746,-0.0394195057451725,-0.000295419275062159,-0.2727370262146,-0.132608085870743,-0.952905893325806
455616242230.371,-0.280826715180884,0.0159495808285214,0.13456017008093,0.142779633402824,-0.208853259682655,-0.0583467669785023,-0.0351239219307899,-0.047959178686142,0.0201038308441639,-0.274644762277603,-0.134154468774796,-0.952141165733337
455616242240.379,-0.283082636529975,0.0156781760858573,0.136053967045657,0.134316593408585,-0.237573504447937,-0.0689056664705276,-0.0254798494279385,-0.0523536689579487,0.0259716976433992,-0.276735723018646,-0.135634616017342,-0.951325714588165
455616242250.389,-0.28855654515492,0.0158692913961004,0.142325184228693,0.125968053936958,-0.258806228637695,-0.0560230426490307,-0.0171672124415636,-0.0384526811540127,0.0235474929213524,-0.281691431999207,-0.141845166683197,-0.948962509632111
455616242260.399,-0.292494048190614,0.0160192620123095,0.146051803085054,0.0972568020224571,-0.232258856296539,-0.033624205738306,-0.00824668630957603,-0.0221304595470428,0.0179662182927132,-0.285271376371384,-0.145533114671707,-0.94733327627182
455616242270.407,-0.295286389269208,0.0161682629826453,0.148908502063685,0.0759865567088127,-0.208889275789261,-0.0155040714889765,-0.00224568205885589,-0.0194115843623877,0.0118967862799764,-0.28779336810112,-0.148358806967735,-0.946131408214569
455616242280.419,-0.29753462922084,0.0162025728953035,0.151258581158808,0.108985126018524,-0.227994740009308,-0.0336782857775688,0.0026310991961509,-0.0138378012925386,0.00557084428146482,-0.28981676697731,-0.150682464241982,-0.945146024227142
455616242290.43,-0.300231168031033,0.0163499918803479,0.156692494562888,0.159323766827583,-0.293704569339752,-0.0272313207387924,0.00160578277427703,-0.0498347580432892,-0.00348700722679496,-0.292117863893509,-0.156052082777023,-0.943565011024475
455616242300.438,-0.30450712475036,0.0164545740221961,0.158740767400464,0.184800714254379,-0.337364226579666,-0.0773114934563637,-0.00446847826242447,0.00293882354162633,0.0246114637702703,-0.296053379774094,-0.158074930310249,-0.942000389099121
455616242310.448,-0.308098376826694,0.0160236059120129,0.160791727236406,0.132171019911766,-0.23882769048214,-0.106269881129265,0.00151442771311849,0.00269010337069631,0.0419995822012424,-0.299335479736328,-0.160099774599075,-0.940620183944702
455616242320.446,-0.310325691658309,0.0157097209953775,0.163453738710791,0.0171589870005846,-0.13268469274044,-0.0422697030007839,0.00297398865222931,-0.0219960249960423,0.0464603155851364,-0.301298558712006,-0.162726879119873,-0.93954199552536
455616242330.454,-0.310378935095269,0.0158383182068579,0.164109538776179,-0.148560017347336,-0.0369831658899784,0.0997795164585114,0.0201727505773306,-0.0235920436680317,0.0338607653975487,-0.301315933465958,-0.163373902440071,-0.939424097537994
455616242340.479,-0.312085586363218,0.018008488998223,0.161797979542747,-0.194205358624458,-0.0798799693584442,0.329414814710617,0.00031479840981774,-0.00191668095067143,0.0320083275437355,-0.303033918142319,-0.161092966794968,-0.939265429973602
455616242350.484,-0.313372813050416,0.0214578991114004,0.160300770941583,-0.175487414002419,-0.106025688350201,0.43931970000267,0.0125686740502715,-0.0263742506504059,0.0201576333492994,-0.304316729307175,-0.159615129232407,-0.939102947711945
455616242360.492,-0.314897459925913,0.0251980510889916,0.158578430604594,-0.142119333148003,-0.195110142230988,0.445886373519897,0.0153970681130886,-0.0224137343466282,-0.00237103994004428,-0.305832862854004,-0.157914638519287,-0.938897907733917
455616242370.509,-0.319356949634031,0.0289478212369462,0.156875422257846,-0.08326206356287,-0.344896793365479,0.394965618848801,-0.0173070449382067,-0.0137959206476808,-0.00173549668397754,-0.310100793838501,-0.156232759356499,-0.937778651714325
455616242380.503,-0.324364776933284,0.0322912665714215,0.15545970179597,-0.0116776740178466,-0.481882244348526,0.347172796726227,-0.0296496450901031,-0.0248532257974148,0.00932918395847082,-0.314863294363022,-0.154834270477295,-0.93642270565033
455616242390.511,-0.330589441517629,0.0356629543597909,0.154674721683199,0.0451043322682381,-0.595406353473663,0.33989143371582,-0.0230550896376371,-0.0278260540217161,0.0111126592382789,-0.320725440979004,-0.154058709740639,-0.934559285640717
455616242400.538,-0.33754356451195,0.0392731033666441,0.154119766723415,0.0688085481524467,-0.649442136287689,0.361327230930328,-0.0202739965170622,-0.0229270197451115,0.0171952489763498,-0.327244937419891,-0.153510361909866,-0.932386875152588
455616242410.541,-0.345368512708948,0.0433063348616073,0.153911432024707,0.0797685757279396,-0.688605904579163,0.397687673568726,-0.0121076395735145,-0.0155645282939076,0.0129424026235938,-0.334541529417038,-0.153304487466812,-0.929827749729156
455616242420.549,-0.353314399074028,0.0476690896054685,0.153351895274676,0.100314550101757,-0.736235678195953,0.431915432214737,-0.0142218302935362,-0.0161174740642309,0.00816843658685684,-0.341948837041855,-0.152751550078392,-0.927220582962036
455616242430.569,-0.361143766662199,0.0522288262309606,0.152837460409548,0.1108558177948,-0.695838153362274,0.440299600362778,-0.026110153645277,-0.0249724499881268,0.0158511325716972,-0.349225550889969,-0.152243122458458,-0.924588322639465
455616242440.588,-0.36785247549453,0.0566285115557029,0.152270091808374,0.0954014509916306,-0.567462563514709,0.417549788951874,-0.0279714185744524,-0.0353446304798126,0.0223264880478382,-0.355451434850693,-0.15168234705925,-0.922305107116699
455616242450.596,-0.373790941516536,0.06042844779537,0.152252154995215,0.0327294431626797,-0.383116692304611,0.344611585140228,-0.0249257944524288,-0.0255051832646132,0.0231926571577787,-0.360923200845718,-0.151664614677429,-0.920180559158325
455616242460.6,-0.376523778711392,0.0628192564815547,0.150902739640221,-0.064206451177597,-0.190389290452003,0.242941692471504,-0.0311113242059946,-0.0424336083233356,0.0197068154811859,-0.363511472940445,-0.150330677628517,-0.919380247592926
455616242470.625,-0.377094418847898,0.0638872541089462,0.149148205894342,-0.140983566641808,0.012975886464119,0.134782999753952,-0.0426514409482479,-0.0566501244902611,0.015699464827776,-0.364132612943649,-0.148595854640007,-0.919416487216949
455616242480.633,-0.37528086595236,0.063797699856633,0.147283787302913,-0.185833647847176,0.233431905508041,0.0382207669317722,-0.0641465112566948,-0.0578837469220161,0.00942760147154331,-0.362565517425537,-0.146751865744591,-0.920331537723541
455616242490.629,-0.37491600799828,0.063459277770635,0.146463920400992,-0.21218965947628,0.410327225923538,-0.019845774397254,-0.0818791836500168,-0.0297183468937874,-0.00192520418204367,-0.362273633480072,-0.145940825343132,-0.920575380325317
455616242500.571,-0.369582109710685,0.0622826268755075,0.144713564413577,-0.197924226522446,0.549345910549164,-0.053378164768219,-0.0635094866156578,-0.0140704251825809,-0.0101604266092181,-0.357449978590012,-0.144208997488022,-0.922731399536133
455616242510.579,-0.363608975591013,0.0610076795939255,0.143399427028062,-0.158716946840286,0.572715163230896,-0.0748941153287888,-0.0307980999350548,0.00190199911594391,-0.0114818150177598,-0.351999133825302,-0.142908468842506,-0.92502635717392
455616242520.59,-0.358617866310413,0.0597942952440319,0.14247134074468,-0.118900872766972,0.443236917257309,-0.0799469277262688,-0.0218689423054457,-0.018669942393899,-0.0366207398474216,-0.347424268722534,-0.141989842057228,-0.926895499229431
455616242530.602,-0.355360236962576,0.0588104316998955,0.142818432596722,-0.0565563328564167,0.28727513551712,-0.0775290802121162,-0.0236562099307775,-0.0333868004381657,-0.0411248579621315,-0.344385772943497,-0.142333418130875,-0.927976071834564
455616242540.61,-0.353247195092066,2.80348808745262,0.143178338691991,0.033260852098465,0.177037119865417,-0.0742422118782997,-0.0405586697161198,-0.0375624299049377,-0.0267602186650038,-0.342406421899796,-0.142689645290375,-0.928653597831726
455616242550.622,-0.351883034462453,2.80319051476036,0.144205500986187,0.102710984647274,0.120945170521736,-0.060394037514925,-0.0627047643065453,-0.0426646284759045,-0.0317573770880699,-0.341088563203812,-0.14370621740818,-0.928981781005859
455616242560.631,-0.350555358019991,2.80304456166789,0.145726978309242,0.147299706935883,0.141174346208572,-0.0712464228272438,-0.08597132563591,-0.0502838641405106,-0.036272507160902,-0.339779406785965,-0.145211741328239,-0.929227352142334
455616242570.639,-0.352996391607027,2.80332464270682,0.150157177743649,0.165172874927521,0.215101182460785,-0.107811003923416,-0.1152408644557,-0.0656316727399826,-0.0245033353567123,-0.341820895671844,-0.14959354698658,-0.927782416343689
455616242580.661,-0.350068580597879,2.80261662669461,0.152006594318182,0.141325280070305,0.303097426891327,-0.13468337059021,-0.128613233566284,-0.0721651464700699,-0.0107217309996486,-0.339007616043091,-0.151421889662743,-0.928517758846283
455616242590.662,-0.346694571817603,2.80159176939194,0.153272033732323,0.0603566132485867,0.319917500019073,-0.136645585298538,-0.121620498597622,-0.0882331430912018,0.00441125268116593,-0.335807472467422,-0.152672618627548,-0.929475367069244
455616242600.67,-0.343513684323747,2.80025755323688,0.153415532910007,-0.0640394240617752,0.288903713226318,-0.127675265073776,-0.097990058362484,-0.0924706012010574,0.0216589104384184,-0.332841843366623,-0.15281443297863,-0.93051815032959
455616242610.668,-0.344669796782542,2.79898324751128,0.15613043541501,-0.161581829190254,0.227784886956215,-0.1539486348629,-0.0723519325256348,-0.0727288275957108,0.0434015542268753,-0.333775997161865,-0.155496880412102,-0.929738819599152
455616242620.692,-0.343335917094906,2.79681638788576,0.154771001870623,-0.210949689149857,0.0418763421475887,-0.151117965579033,-0.0551346950232983,-0.0679225772619247,0.0267406683415174,-0.33260640501976,-0.1541538387537,-0.930381417274475
455616242630.7,-0.346005766121013,2.79489280367499,0.153065305383728,-0.226124435663223,-0.439032971858978,-0.1122832223773,-0.0250363629311323,-0.0424322001636028,0.0199460573494434,-0.33517786860466,-0.152468308806419,-0.929736077785492
455616242640.718,-0.355703341412447,2.79336808480561,0.151608080707086,-0.166973814368248,-1.1874144077301,-0.0867144763469696,0.0125901233404875,0.00468091620132327,-0.0318467877805233,-0.344255149364471,-0.151027962565422,-0.926649332046509
455616242650.721,-0.373223610214263,2.79254726407824,0.151330948016069,-0.00659280316904187,-1.96105706691742,-0.057080015540123,0.0636531859636307,0.018765477463603,-0.0602132566273212,-0.360451877117157,-0.150754004716873,-0.92051488161087
455616242660.729,-0.398467240448094,2.79289808033211,0.15282516149524,0.205881327390671,-2.69739294052124,-0.0138316135853529,0.0991668701171875,0.0247590467333794,-0.0645185112953186,-0.38348388671875,-0.152230963110924,-0.910914838314056
455616242670.734,-0.430519010546941,2.79432236369506,0.156268295967992,0.428427010774612,-3.3266077041626,-0.0146766342222691,0.106684654951096,0.0296107269823551,-0.0840743854641914,-0.412257164716721,-0.155633062124252,-0.897676110267639
455616242680.754,-0.467118383018912,2.79658905052574,0.161797372637906,0.640418887138367,-3.70744705200195,-0.0397172272205353,0.0199038032442331,-0.0079750195145607,-0.0126059288159013,-0.444433838129044,-0.16109237074852,-0.881208181381226
455616242690.762,-0.506266713350613,2.7997308674464,0.168618476487527,0.757063865661621,-3.8824315071106,-0.0416455194354057,-0.00304074375890195,-0.0232652351260185,0.0134484088048339,-0.478038370609283,-0.167820572853088,-0.86215752363205
455616242700.771,-0.546399864669646,2.8031839745957,0.175627560620403,0.767871201038361,-3.95575451850891,-0.0638595148921013,-0.0145015921443701,-0.0381340272724628,0.0450081713497639,-0.511621475219727,-0.174726083874702,-0.841257572174072
455616242710.782,-0.586979809234466,2.80615266821226,0.182407466799961,0.706027269363403,-4.0219612121582,-0.139239326119423,-0.0168629921972752,-0.0382373854517937,0.0661183968186378,-0.544660449028015,-0.181397616863251,-0.81880396604538
455616242720.79,-0.629771173689229,2.80785471774622,0.189348377954311,0.656338751316071,-4.33690547943115,-0.307786792516708,-0.0412107445299625,-0.0306225940585136,0.0501115210354328,-0.578433394432068,-0.188218966126442,-0.793718099594116
455616242730.786,-0.675976756595092,2.80803131723357,0.19768215115616,0.680972695350647,-4.70293283462524,-0.558534383773804,-0.0470937341451645,-0.0357042886316776,0.0653642043471336,-0.613474488258362,-0.1963971555233,-0.764903366565704
455616242740.812,-0.726384924562351,2.80662702822624,0.20840946491201,0.749431312084198,-5.21777200698853,-0.88470184803009,-0.0507466904819012,-8.14293016446754e-05,0.0292704217135906,-0.649799585342407,-0.206904038786888,-0.731403589248657
455616242750.82,-0.784968768424582,2.80360469029309,0.223154077593736,0.918896734714508,-6.18413734436035,-1.35167908668518,-0.0811846405267715,0.0183189176023006,-0.0199540108442307,-0.689277410507202,-0.221306592226028,-0.689869582653046
455616242760.831,-0.854102809515735,2.79984010484048,0.243878281685098,1.23420083522797,-7.2534613609314,-1.89769554138184,-0.0957066938281059,-0.0209832210093737,-0.00466344458982348,-0.731670618057251,-0.241467952728271,-0.637456893920898
455616242770.844,-0.931125105917235,2.79743308681407,0.270523941420915,1.55593883991241,-7.86470794677734,-2.31388592720032,-0.0899235978722572,-0.042929045855999,0.0215719919651747,-0.773113489151001,-0.267236351966858,-0.57522189617157
455616242780.852,-1.00924331681793,2.79643588263621,0.29983779474641,1.55050015449524,-7.76657104492188,-2.49980545043945,-0.135502874851227,-0.0368338562548161,0.0168764255940914,-0.808665215969086,-0.295365244150162,-0.508743464946747
455616242790.866,-1.08113125029843,2.79551119495285,0.327778157443592,1.22974979877472,-6.96104383468628,-2.42240738868713,-0.164859592914581,-0.0471087992191315,0.0340503267943859,-0.835506618022919,-0.321940273046494,-0.445289939641953
455616242800.876,-1.13862186731616,2.79367860386517,0.35080454042986,0.735272824764252,-5.35522365570068,-2.00767874717712,-0.19006285071373,-0.0741626992821693,0.0665549039840698,-0.852753281593323,-0.343653470277786,-0.39333713054657
455616242810.884,-1.1743423340578,2.78987626100097,0.365344593513806,0.0877534151077271,-3.11267066001892,-1.28078818321228,-0.194169148802757,-0.0350323021411896,0.0647962763905525,-0.861555933952332,-0.357271164655685,-0.360664188861847
455616242820.891,-1.18485042128378,2.78263880064496,0.370550050137625,-0.588004052639008,-0.727936446666718,-0.568118810653687,-0.156379714608192,0.0042027891613543,0.0188245363533497,-0.863563537597656,-0.36212819814682,-0.350886315107346
455616242830.906,-1.17383376055024,2.77278723369426,0.368648226460278,-1.00328195095062,1.18096530437469,-0.0595700703561306,-0.137248873710632,-0.0275236107409,-0.0470860823988914,-0.860279202461243,-0.36035481095314,-0.36064401268959
455616242840.914,-1.14853496696121,2.76294390468481,0.362563795860703,-1.08403098583221,2.4634575843811,0.261112600564957,-0.141733154654503,-0.0323971807956696,-0.0826690346002579,-0.852865219116211,-0.354672521352768,-0.383181810379028
455616242850.922,-1.11544097608068,2.75557866152855,0.355259664220669,-0.864600360393524,3.19697380065918,0.390589118003845,-0.0923787355422974,-0.0248315781354904,-0.0656006783246994,-0.842023730278015,-0.347833812236786,-0.412319868803024
455616242860.927,-1.07988179939925,2.75190567482786,0.348835196119863,-0.508858323097229,3.47916221618652,0.418632984161377,-0.081415593624115,-0.025933425873518,-0.0758362039923668,-0.828786432743073,-0.341803401708603,-0.443038910627365
455616242870.935,-1.04337140633747,2.75151227703306,0.343598942395226,-0.227384328842163,3.69431471824646,0.449216991662979,-0.0759593024849892,-0.0385494008660316,-0.0275132246315479,-0.813597559928894,-0.336877852678299,-0.473890572786331
455616242880.952,-1.00494333179216,2.7527782361941,0.338434102659313,-0.166149258613586,3.93784403800964,0.526196241378784,-0.0373845994472504,-0.0392664298415184,0.0552236288785934,-0.796248853206635,-0.332010418176651,-0.505724132061005
455616242890.964,-0.964574703903368,2.75385337024502,0.331934889587088,-0.333482652902603,4.11937665939331,0.619992733001709,0.0112001206725836,-0.0289702322334051,0.129683613777161,-0.776947200298309,-0.325872898101807,-0.538664937019348
455616242900.972,-0.921383337092914,2.75310189749378,0.322861012532991,-0.685127556324005,4.34620714187622,0.715226292610168,0.0713739693164825,-0.0402171239256859,0.228152438998222,-0.755288124084473,-0.317281037569046,-0.573474109172821
455616242910.981,-0.876394676007225,2.75031287515504,0.310742726534836,-1.04796433448792,4.41477823257446,0.802433371543884,0.10352099686861,-0.0173389818519354,0.250970751047134,-0.73163378238678,-0.305765867233276,-0.609277606010437
455616242920.989,-0.831151950796313,2.7462787764628,0.29594334047462,-1.32104897499084,4.38477373123169,0.887557864189148,0.154867470264435,-0.0214833002537489,0.229623556137085,-0.70659476518631,-0.291642308235168,-0.644723653793335
455616242930.997,-0.787838008260739,2.74284502954739,0.278801333135405,-1.44407188892365,4.1652717590332,1.05499267578125,0.209596365690231,0.0516469478607178,0.193599075078964,-0.681459128856659,-0.275203466415405,-0.678141951560974
455616242941.013,-0.748759337702774,2.74096398875499,0.260485293795097,-1.42822480201721,3.73137211799622,1.16401481628418,0.308889120817184,0.0874140039086342,0.106641001999378,-0.657766103744507,-0.257549494504929,-0.707822024822235
455616242951.023,-0.716877988094189,2.74153197758887,0.242842105526268,-1.20389020442963,2.99303984642029,1.23924326896667,0.388152658939362,0.0862722471356392,0.0170348268002272,-0.637755930423737,-0.240462303161621,-0.73174124956131
455616242961.031,-0.695807507342443,2.74556852278332,0.227900228396411,-0.760303795337677,1.89289999008179,1.26268470287323,0.409907609224319,0.104289479553699,-0.0798855721950531,-0.624430954456329,-0.225932538509369,-0.747690081596375
455616242971.042,-0.690959679304484,2.75242667469605,0.21856670184288,-0.103679127991199,0.1393933147192,1.04639768600464,0.381728768348694,0.14148274064064,-0.183124005794525,-0.622115731239319,-0.216830641031265,-0.752300798892975
455616242981.053,-0.709419452912834,2.76219894863388,0.218562209104042,0.861771821975708,-2.26197600364685,0.591169357299805,0.285722941160202,0.182066738605499,-0.273134559392929,-0.635896861553192,-0.216826260089874,-0.740689873695374
455616242991.061,-0.756200607490065,2.77301849597613,0.230602169578781,1.83588182926178,-5.20505285263062,-0.252927243709564,0.155059635639191,0.14116145670414,-0.302946984767914,-0.667999088764191,-0.22856380045414,-0.708191931247711
455616243001.074,-0.83398718053996,2.78371608560889,0.255676634018345,2.69853258132935,-8.24682903289795,-1.34073662757874,-0.0228391960263252,0.104599930346012,-0.283447355031967,-0.716540694236755,-0.252900093793869,-0.650085389614105
455616243011.083,-0.936682388482737,2.79558937099778,0.292019716411843,3.31376886367798,-10.3989181518555,-2.31106185913086,-0.153465747833252,-0.0455632954835892,-0.139970079064369,-0.771491527557373,-0.287887006998062,-0.567381620407104
455616243021.091,-1.05223796743726,2.81114750888576,0.334766146861179,3.63422870635986,-11.1710605621338,-2.89959836006165,-0.242805823683739,-0.117145664989948,-0.00724226189777255,-0.820319771766663,-0.328548312187195,-0.468114793300629
455616243031.098,-1.16759406272136,2.8322446506529,0.378673616696725,3.71959757804871,-10.5311460494995,-3.06499838829041,-0.310911744832993,-0.168138161301613,0.0873778164386749,-0.85464608669281,-0.369688391685486,-0.36456897854805
455616243041.115,-1.26623679925321,2.85633509189469,0.416408741743981,3.21227383613586,-8.248854637146,-2.61386942863464,-0.377418786287308,-0.300248473882675,0.222871735692024,-0.872459173202515,-0.404478698968887,-0.274248093366623
455616243051.123,-1.3276791145512,2.87461469791739,0.439672368479315,1.82084906101227,-4.28945636749268,-1.46123158931732,-0.441177636384964,-0.372666299343109,0.392974227666855,-0.878280401229858,-0.425643026828766,-0.21783384680748
455616243061.129,-1.33413962041886,2.87594148384541,0.443583758943281,-0.37517899274826,0.65155154466629,0.0139180123806,-0.386878907680511,-0.308720648288727,0.556825518608093,-0.878044188022614,-0.429179131984711,-0.211763247847557
455616243071.155,-1.28950653171974,2.85726118926751,0.429785061991761,-2.45183682441711,4.50439691543579,1.14955520629883,-0.203057676553726,-0.115581661462784,0.571212112903595,-0.873327791690826,-0.416675418615341,-0.252349197864532
455616243081.163,-1.21935218321202,2.829855103554,0.404568072855431,-3.28755331039429,6.18011808395386,1.7207750082016,0.0095524974167347,-0.0748383477330208,0.381160527467728,-0.863083362579346,-0.393621742725372,-0.316463261842728
455616243091.159,-1.15054254460159,2.8056267323932,0.376605893946356,-3.00280690193176,5.70494556427002,1.70542454719543,0.191363245248795,-0.0461435578763485,0.117619566619396,-0.84900176525116,-0.367766350507736,-0.379399359226227
455616243101.159,-1.10592792285573,2.78916986942953,0.354804079007373,-2.0455904006958,3.07702445983887,1.1367461681366,0.327157467603683,0.0484412014484406,-0.176694124937057,-0.838204860687256,-0.347406655550003,-0.420382291078568
455616243111.167,-1.1029471352169,2.78224704468606,0.345928770872901,-0.594983518123627,-0.991737484931946,0.276602894067764,0.361532896757126,0.15617872774601,-0.493548154830933,-0.839667022228241,-0.339070588350296,-0.42425274848938
455616243121.183,-1.14198686559161,2.78649579884813,0.351465544001178,0.982977151870728,-4.55245780944824,-0.51074206829071,0.200316086411476,0.10457381606102,-0.580118656158447,-0.853865265846252,-0.344274133443832,-0.390370875597
455616243131.204,-1.20715153514126,2.80154847658096,0.367010699707896,2.1536021232605,-6.29409170150757,-0.986662805080414,0.0356500260531902,0.0467540584504604,-0.372914254665375,-0.872365713119507,-0.358826816082001,-0.331996023654938
455616243141.212,-1.27758539942678,2.8240136183343,0.3849359404136,2.61989736557007,-6.00966119766235,-0.990935802459717,-0.0917374938726425,-0.0535621233284473,-0.143713295459747,-0.887266397476196,-0.375499755144119,-0.267877280712128
455616243151.224,-1.32998503433868,2.84717375193259,0.396831482916284,2.22465801239014,-3.63643622398376,-0.3995600938797,-0.200330913066864,-0.0691904798150063,0.0715810805559158,-0.895677387714386,-0.386498004198074,-0.219957545399666
455616243161.234,-1.34492067254996,2.86291087265139,0.396792933269833,1.09947693347931,0.0819463729858398,0.593041300773621,-0.208590567111969,0.0480072386562824,0.193314701318741,-0.898877084255219,-0.386462450027466,-0.206559330224991
455616243171.242,-1.31923443882271,2.86780479612079,0.384747482464818,-0.131811395287514,3.55978488922119,1.47463738918304,-0.132462784647942,0.0899857357144356,0.208304315805435,-0.897719085216522,-0.375325083732605,-0.230719476938248
455616243181.253,-1.26816284355638,2.86677015838319,0.365066171630793,-0.727661967277527,5.39959764480591,1.95529818534851,-0.0880559161305428,0.0676892101764679,0.104352824389935,-0.891649901866913,-0.35701110959053,-0.27839457988739
455616243191.265,-1.2126643721119,2.86673054204301,0.344252272283183,-0.618386387825012,5.46661710739136,1.92598986625671,-0.111224502325058,0.0140523631125689,0.0295595433562994,-0.881603837013245,-0.337492913007736,-0.329959332942963
455616243201.273,-1.16713883892999,2.86924833358348,0.328985341064139,-0.256042838096619,4.26021337509155,1.31837868690491,-0.128467947244644,-0.00441643828526139,0.0673526525497437,-0.870311379432678,-0.323082953691483,-0.371719717979431
455616243211.283,-1.14293525159526,2.87129095869663,0.324182450457162,0.0649095475673676,1.78008389472961,0.221825838088989,-0.131754636764526,0.0277777016162872,0.00371010834351182,-0.862462282180786,-0.318533927202225,-0.393312782049179
455616243221.292,-1.14967368465697,2.87176579368772,0.332001625753617,0.471108675003052,-1.47535884380341,-0.984643161296844,-0.0994104668498039,-0.0211709327995777,-0.04133315756917,-0.862793505191803,-0.325935989618301,-0.386462241411209
455616243231.3,-1.18378707874584,2.87173729174062,0.35006992602854,0.760028839111328,-3.9282443523407,-1.84540843963623,-0.0717130079865456,-0.0513693913817406,0.0152961118146777,-0.869876325130463,-0.342963486909866,-0.354529500007629
455616243241.313,-1.22992869502899,2.87106608400029,0.372596404795466,0.710242092609406,-4.71406412124634,-2.16509866714478,-0.122537672519684,-0.0726106017827988,0.04316296428442,-0.877798020839691,-0.364034920930862,-0.311366707086563
455616243251.316,-1.26758025884011,2.86864551135023,0.392464726220423,0.27916145324707,-3.38232970237732,-1.83186674118042,-0.196321487426758,-0.13128125667572,0.117228090763092,-0.881818771362305,-0.382466912269592,-0.275888979434967
455616243261.324,-1.27605383741716,2.860979315439,0.40328723626375,-0.607199847698212,-0.303255259990692,-1.01616084575653,-0.262557297945023,-0.0326048508286476,0.186134189367294,-0.880112409591675,-0.392443984746933,-0.267188876867294
455616243271.345,-1.2475243464317,2.84524724741436,0.402375673796274,-1.65280032157898,3.0230712890625,-0.148486718535423,-0.152690380811691,0.0911140516400337,0.11722008138895,-0.872471332550049,-0.391605377197266,-0.292299419641495
455616243281.344,-1.1940645489027,2.82604263825718,0.39277633886063,-2.02751350402832,4.970458984375,0.415312498807907,0.0171126797795296,0.102435596287251,0.00834136642515659,-0.859062135219574,-0.382754802703857,-0.33986908197403
455616243291.352,-1.13654938219559,2.81131231084553,0.380571805074914,-1.58435881137848,5.12168264389038,0.605678379535675,0.100870758295059,0.0730658024549484,-0.133102089166641,-0.842280030250549,-0.371451437473297,-0.390625327825546
455616243301.375,-1.09179411028509,2.80372402445044,0.37233143563326,-0.793194949626923,3.77810716629028,0.326971709728241,0.129626855254173,0.0618166737258434,-0.203101515769958,-0.826648354530334,-0.363788098096848,-0.429314255714417
455616243311.374,-1.06934040332692,2.8000856720109,0.372616024961743,-0.135919645428658,1.51015245914459,-0.380665093660355,0.132155209779739,0.0638822838664055,-0.210654959082603,-0.816710233688354,-0.364053189754486,-0.447716027498245
455616243321.382,-1.07060321653215,2.79689145256356,0.382297736637816,0.301721036434174,-0.777658045291901,-1.18152475357056,0.159618124365807,0.0476596392691135,-0.195957183837891,-0.814143896102905,-0.373053312301636,-0.444972991943359
455616243331.404,-1.08778343449676,2.79334120293857,0.39847684638554,0.513899028301239,-2.12629246711731,-1.67947161197662,0.223198011517525,0.0528709292411804,-0.125085055828094,-0.816215574741364,-0.38801497220993,-0.428061306476593
455616243341.422,-1.11237733088732,2.79020628017587,0.417073798560828,0.608991384506226,-2.67542386054993,-1.79116463661194,0.2813840508461,0.0902827531099319,-0.122838951647282,-0.819881975650787,-0.405086815357208,-0.404596358537674
455616243351.43,-1.13795671299568,2.78949425497254,0.434554602913849,0.724590659141541,-2.48844695091248,-1.50505435466766,0.319806218147278,0.0763256549835205,-0.132977455854416,-0.823407292366028,-0.421006441116333,-0.380465537309647
455616243361.44,-1.15654997446523,2.79250805918664,0.446375996855388,0.714615762233734,-1.40296614170074,-0.749748587608337,0.323176562786102,0.0954873040318489,-0.0814873874187469,-0.82572478055954,-0.431699454784393,-0.363062173128128
455616243371.446,-1.16160595434275,2.79790240376955,0.448459500892329,0.456290662288666,0.104384623467922,0.261017948389053,0.398683339357376,0.155074462294579,-0.0662043318152428,-0.826722860336304,-0.43357789516449,-0.358524054288864
455616243381.454,-1.15335966741507,2.80536709879469,0.44043293242413,0.256860613822937,1.47265613079071,1.24110305309296,0.405674189329147,0.142944887280464,-0.101930126547813,-0.826893031597137,-0.426331132650375,-0.36672830581665
455616243391.452,-1.13537310557661,2.81583014223014,0.425089403422676,0.232140824198723,2.43793296813965,1.93813359737396,0.340264707803726,0.13058765232563,-0.106040135025978,-0.825997769832611,-0.412402242422104,-0.384255290031433
455616243401.476,-1.11432707367505,2.82947317721116,0.406866892993344,0.39658722281456,2.66005086898804,2.22507047653198,0.205426067113876,0.103818044066429,-0.161165252327919,-0.824337840080261,-0.395733952522278,-0.40479850769043
455616243411.484,-1.09750040913419,2.84623311641426,0.39094940542826,0.763626158237457,2.17280387878418,2.03669500350952,0.00839871540665627,0.0528650619089603,-0.162615910172462,-0.822912871837616,-0.381066352128983,-0.421429514884949
455616243421.492,-1.08925852723901,2.86346589289259,0.381504244890149,1.03230822086334,1.20177209377289,1.37848675251007,-0.200903087854385,-0.0467351339757442,-0.0452828742563725,-0.822564959526062,-0.372316986322403,-0.429845303297043
455616243431.506,-1.09229539827171,2.87634859009772,0.380656427761155,0.992130100727081,-0.19366554915905,0.355399310588837,-0.353664219379425,-0.111883707344532,0.10845972597599,-0.824146449565887,-0.371529996395111,-0.427490502595901
455616243441.514,-1.10646262473181,2.88130364273897,0.388297202611185,0.653419613838196,-1.54001665115356,-0.735297203063965,-0.418414205312729,-0.216327250003815,0.232481867074966,-0.827557444572449,-0.37861293554306,-0.414488703012466
455616243451.54,-1.12668796601807,2.87718152331747,0.40183460789577,0.111721977591515,-2.3465428352356,-1.56994676589966,-0.419391632080078,-0.273321241140366,0.369046449661255,-0.831066131591797,-0.391107469797134,-0.395428895950317
455616243461.551,-1.14729933043706,2.86572898463189,0.418777135866549,-0.34455931186676,-2.51158738136292,-2.0856351852417,-0.374183505773544,-0.235293686389923,0.380566418170929,-0.832878291606903,-0.406643569469452,-0.375439465045929
455616243471.559,-1.16312532349503,2.85008959219709,0.43719442932227,-0.616205275058746,-2.10824060440063,-2.28988242149353,-0.273999571800232,-0.220109462738037,0.338063150644302,-0.831698060035706,-0.423399448394775,-0.359181314706802
455616243481.549,-1.17252740347924,2.8328358168219,0.455312979147435,-0.748957753181458,-1.54137921333313,-2.25388836860657,-0.159123063087463,-0.158324807882309,0.270752787590027,-0.827830672264099,-0.439743429422379,-0.348313212394714
455616243491.566,-1.17585048937698,2.81553258964816,0.471404102918727,-0.823328971862793,-0.94607549905777,-1.9962283372879,-0.0173153560608625,-0.0528508350253105,0.205723494291306,-0.822345316410065,-0.454137682914734,-0.342793196439743
455616243501.574,-1.17058655928175,2.79916877289308,0.481858414920649,-0.989879906177521,0.0538605898618698,-1.32878577709198,0.144038811326027,0.0175344478338957,0.148577973246574,-0.816112160682678,-0.463426768779755,-0.345248520374298
455616243511.572,-1.15433868516458,2.78414486040477,0.482201384369464,-1.28302431106567,1.21404039859772,-0.282735079526901,0.363167226314545,0.150177821516991,0.0713650435209274,-0.810249745845795,-0.463730663061142,-0.358398109674454
455616243521.597,-1.12942356551345,2.77214873895282,0.471330881940543,-1.44527792930603,2.14529013633728,0.81272429227829,0.559684753417969,0.237824901938438,-0.0476651526987553,-0.805580139160156,-0.454072445631027,-0.380603283643723
455616243531.605,-1.10192628770253,2.76595864838887,0.452023372868023,-1.28297436237335,2.52327871322632,1.69025135040283,0.636300146579742,0.268344819545746,-0.140212938189507,-0.80248361825943,-0.436786592006683,-0.406494200229645
455616243541.601,-1.07849267773955,2.76796285466658,0.428900288452733,-0.75400447845459,2.36691331863403,2.26005482673645,0.591953635215759,0.282432854175568,-0.281274944543839,-0.801426291465759,-0.41587096452713,-0.429845660924911
455616243551.628,-1.06153645462894,2.77971472746706,0.405509607439215,0.044042807072401,2.05977559089661,2.66100645065308,0.496740758419037,0.235032752156258,-0.406499058008194,-0.802298009395599,-0.394487082958221,-0.447993129491806
455616243561.636,-1.05069817875564,2.80126198510192,0.383692188615543,0.844249665737152,1.87855768203735,2.92927837371826,0.333711266517639,0.200564384460449,-0.434372276067734,-0.804673790931702,-0.374346733093262,-0.460830360651016
455616243571.646,-1.04158416140724,2.82769952598858,0.365000451341832,1.26607584953308,1.89375293254852,2.76910829544067,-0.392481774091721,0.0590676367282867,-0.093345895409584,-0.806340217590332,-0.356949716806412,-0.471595495939255
455616243581.657,-1.0286521636564,2.85098154014281,0.352535955793794,1.19418203830719,2.20096111297607,1.93514013290405,-0.750687956809998,-0.113201923668385,0.120899260044098,-0.80392324924469,-0.345278918743134,-0.484241545200348
455616243591.665,-1.00953340125163,2.86475487543944,0.348821817188382,0.797036707401276,2.41052269935608,0.659602284431458,-0.912500381469727,-0.240179404616356,0.226946860551834,-0.795598983764648,-0.341790825128555,-0.500201225280762
455616243601.677,-0.987323645131323,2.86713450468367,0.353595758353612,0.336525022983551,2.23147988319397,-0.569778919219971,-0.807713568210602,-0.277292340993881,0.278819799423218,-0.782923638820648,-0.346273332834244,-0.516841650009155
455616243611.687,-0.966385505285174,2.86078186870062,0.363836015003469,0.0111947953701019,1.73884880542755,-1.33555591106415,-0.596261382102966,-0.255649477243423,0.263605833053589,-0.768972992897034,-0.355861753225327,-0.531077146530151
455616243621.695,-0.947905636387756,2.85005890594592,0.375428942297178,-0.203579068183899,1.39263689517975,-1.54836487770081,-0.384083062410355,-0.210003778338432,0.289487481117249,-0.755626380443573,-0.366671621799469,-0.542752861976624
455616243631.707,-0.928778451099338,2.83659454574483,0.385189769446315,-0.524035930633545,1.45902073383331,-1.50714361667633,-0.184109672904015,-0.15360763669014,0.323414415121078,-0.742205619812012,-0.375735014677048,-0.554936051368713
455616243641.719,-0.90422541224038,2.82003000850423,0.390538204150136,-1.02409744262695,1.97689783573151,-1.2864887714386,0.0585094168782234,-0.080663338303566,0.30928847193718,-0.72676807641983,-0.380686163902283,-0.571739614009857
455616243651.727,-0.872611695687412,2.80199486722709,0.389230700342546,-1.47882890701294,2.63369846343994,-0.819927275180817,0.35860088467598,0.0405332893133163,0.255100041627884,-0.708713829517365,-0.379476755857468,-0.594745397567749
455616243661.733,-0.838269934327619,2.78638647870212,0.381041401090806,-1.65223288536072,2.85424542427063,-0.152246400713921,0.706092953681946,0.158554255962372,0.111813746392727,-0.690162777900696,-0.371887385845184,-0.620785892009735
455616243671.746,-0.808714881370588,2.77664135142301,0.367035643172799,-1.59325969219208,2.47664880752563,0.59448504447937,0.922838151454926,0.224008172750473,-0.023693798109889,-0.675218522548676,-0.358850091695786,-0.644442796707153
455616243681.754,-0.788079987261018,2.77353657251413,0.349284152521072,-1.38140952587128,1.74216222763062,1.20958054065704,0.978003025054932,0.276490420103073,-0.141786843538284,-0.666189670562744,-0.342225283384323,-0.662625968456268
455616243691.767,-0.78131107263194,2.7777839878707,0.331340252525024,-0.818238615989685,0.467351347208023,1.65037333965302,0.903440415859222,0.288948982954025,-0.289610803127289,-0.665906846523285,-0.325310677289963,-0.671372473239899
455616243701.786,-0.79186413497459,2.79073300747884,0.317179824773531,0.112134546041489,-1.00794184207916,1.92539584636688,0.687136471271515,0.267103761434555,-0.342593461275101,-0.676165401935577,-0.311888307332993,-0.667477369308472
455616243711.794,-0.817399433306142,2.8107804168608,0.30882430091002,0.998565256595612,-2.20510959625244,1.87749969959259,0.259454339742661,0.203474894165993,-0.330422103404999,-0.694863855838776,-0.303938776254654,-0.651755630970001
455616243721.798,-0.850279707639957,2.83183914598952,0.308284054722496,1.56884515285492,-2.73717927932739,1.16486048698425,-0.320156216621399,0.045214805752039,-0.208169370889664,-0.716037631034851,-0.303424030542374,-0.628668427467346
455616243731.815,-0.884606478881776,2.84848132249637,0.317346918200942,1.84039461612701,-2.98445630073547,0.0510324127972126,-0.676632881164551,-0.149729669094086,-0.0543239861726761,-0.735033988952637,-0.312047064304352,-0.60195654630661
455616243741.823,-0.919755461393477,2.85950128967613,0.333549746592977,1.78510916233063,-3.19865345954895,-0.809145987033844,-0.781147718429565,-0.24907785654068,0.047514159232378,-0.751612901687622,-0.32739919424057,-0.572614848613739
455616243751.827,-0.952135109902566,2.86546599136245,0.351705796291091,1.41942226886749,-2.92882180213928,-1.19836986064911,-0.756284773349762,-0.29827681183815,0.165278881788254,-0.764787614345551,-0.344499677419662,-0.544444501399994
455616243761.841,-0.975741708999263,2.86658503141111,0.367811328157249,0.849798142910004,-2.06692481040955,-1.26555502414703,-0.727681457996368,-0.33180171251297,0.24423836171627,-0.772730529308319,-0.359574019908905,-0.523062229156494
455616243771.849,-0.983792331651886,2.8618736232373,0.379739665838046,0.0985515490174294,-0.566873908042908,-1.22001147270203,-0.693964540958405,-0.368319720029831,0.321922421455383,-0.77329009771347,-0.370678693056107,-0.514412045478821
455616243781.857,-0.972090135630699,2.84973161083963,0.386373764193186,-0.78853303194046,1.12510991096497,-1.16934013366699,-0.600553393363953,-0.312987357378006,0.37836691737175,-0.765169262886047,-0.376831978559494,-0.522028386592865
455616243791.873,-0.944666967222905,2.83035564194748,0.388142748315752,-1.52906084060669,2.23107481002808,-1.17704737186432,-0.352634787559509,-0.198693722486496,0.336259871721268,-0.750026345252991,-0.378469973802567,-0.542421340942383
455616243801.881,-0.911554608212893,2.80779876786445,0.386457350202719,-1.80939972400665,2.45910310745239,-1.08414697647095,0.02491594851017,-0.0620554350316525,0.230445742607117,-0.732160806655884,-0.376909404993057,-0.567344546318054
455616243811.889,-0.883411844182714,2.7874417439391,0.382869846409966,-1.62296092510223,1.84874057769775,-0.815027594566345,0.445752382278442,0.121875077486038,0.063963957130909,-0.716946840286255,-0.373584061861038,-0.588576376438141
455616243821.899,-0.868692520832575,2.77394405807833,0.378728703236789,-1.07490408420563,0.645068168640137,-0.365872949361801,0.783126890659332,0.244632750749588,-0.0941088870167732,-0.70938116312027,-0.369739562273026,-0.60005921125412
455616243831.907,-0.869751687219936,2.76873850480284,0.374517693362132,-0.512688398361206,-0.582828223705292,0.135593369603157,0.942416250705719,0.306283891201019,-0.202244788408279,-0.711199820041656,-0.365823686122894,-0.600306451320648
455616243841.918,-0.88193302687409,2.77044720522537,0.368437863759796,-0.202020317316055,-1.29808402061462,0.725820958614349,0.96100777387619,0.349416375160217,-0.242706969380379,-0.72016304731369,-0.360158562660217,-0.593001663684845
455616243851.932,-0.900195450359367,2.77894505262469,0.358428044779222,0.0609750486910343,-1.57546544075012,1.47062265872955,0.872438490390778,0.360995471477509,-0.258735328912735,-0.73365980386734,-0.350802600383759,-0.581962943077087
455616243861.94,-0.922056067317099,2.79505690820312,0.344375538303031,0.430671840906143,-1.62754344940186,2.21018362045288,0.674696743488312,0.308952927589417,-0.271729499101639,-0.750059902667999,-0.337608933448792,-0.568709313869476
455616243871.949,-0.943744802354849,2.81669274541335,0.328130015209486,0.743312776088715,-1.36770331859589,2.57768321037292,0.268281847238541,0.209999203681946,-0.242260083556175,-0.766557574272156,-0.322273373603821,-0.555454134941101
455616243881.96,-0.9608584981289,2.83919778520577,0.313192883647098,0.904505372047424,-0.869037806987762,2.35702323913574,-0.261968702077866,0.0571669787168503,-0.161392942070961,-0.779809892177582,-0.308097779750824,-0.544951677322388
455616243891.968,-0.971456626067946,2.85745620678962,0.30417535609694,0.909449696540833,-0.389852494001389,1.46364593505859,-0.799430966377258,-0.128395736217499,-0.0723478496074677,-0.787803530693054,-0.299506485462189,-0.538202047348022
455616243901.994,-0.975629875904636,2.86732281655729,0.305031354222788,0.788305938243866,-0.0578686185181141,0.113365553319454,-1.14045250415802,-0.305878102779388,0.0172944515943527,-0.789830148220062,-0.300323069095612,-0.534765779972076
455616243911.99,-0.976414544316711,2.86839871223719,0.314779223825499,0.572565853595734,-0.0618840642273426,-0.993457496166229,-1.15686976909637,-0.411554336547852,0.0579022392630577,-0.787786543369293,-0.309606552124023,-0.532481074333191
455616243921.998,-0.975716139728074,2.86327937277259,0.329240740091696,0.353904038667679,-0.0939822718501091,-1.58914947509766,-1.01036655902863,-0.397058039903641,0.0939726829528809,-0.783624529838562,-0.323324650526047,-0.530465602874756
455616243932.01,-0.972940798427508,2.85414624732697,0.345196957649282,0.122391141951084,0.0129889855161309,-1.85769188404083,-0.802399218082428,-0.345501631498337,0.141803666949272,-0.77778571844101,-0.338382035493851,-0.529666841030121
455616243942.02,-0.965769543260409,2.8413490137555,0.361197895618649,-0.159723147749901,0.386635601520538,-2.04581713676453,-0.610391318798065,-0.288984686136246,0.171136185526848,-0.769415199756622,-0.353395074605942,-0.532082855701447
455616243952.028,-0.951724018558535,2.82434937567535,0.376917013021898,-0.473325848579407,0.926899194717407,-2.24182748794556,-0.381667912006378,-0.215577766299248,0.198512479662895,-0.757248103618622,-0.368055641651154,-0.539546430110931
455616243962.039,-0.931708187948987,2.80442636399817,0.391395586251962,-0.67906790971756,1.3342707157135,-2.2275562286377,-0.0599832609295845,-0.0897583514451981,0.165188312530518,-0.741942405700684,-0.381478846073151,-0.551357746124268
455616243972.057,-0.911347235274208,2.78619565983551,0.402432671618989,-0.650093555450439,1.28280580043793,-1.74311423301697,0.354464739561081,0.0885419845581055,0.10996912419796,-0.727191150188446,-0.391657829284668,-0.563735008239746
455616243982.065,-0.897894343422278,2.77475751779257,0.408413618766933,-0.371806561946869,0.729733049869537,-0.8897665143013,0.784500002861023,0.252973616123199,-0.016001146286726,-0.717697024345398,-0.397153913974762,-0.57199627161026
455616243992.067,-0.894485803397954,2.77258449409071,0.40871556691371,-0.0778239965438843,0.121909230947495,0.0970640778541565,1.06046772003174,0.336914658546448,-0.0776438787579536,-0.715649604797363,-0.397431015968323,-0.574364185333252
455616244002.081,-0.896079639798541,2.77718804984208,0.402099826193026,-0.113924257457256,0.0451325066387653,1.00318109989166,1.1425975561142,0.414682239294052,-0.0691902488470078,-0.718601644039154,-0.39135155081749,-0.574852705001831
455616244012.089,-0.899157092275335,2.78652236317053,0.387740049627793,-0.235465690493584,0.00523765990510583,1.87528121471405,1.07395040988922,0.485290199518204,-0.129703655838966,-0.724692046642303,-0.378097206354141,-0.57607638835907
455616244022.101,-0.90893545397883,2.80327387678521,0.368106858449904,0.135132044553757,-0.495704472064972,2.70261287689209,0.858304262161255,0.437501728534698,-0.143046259880066,-0.736005067825317,-0.359849750995636,-0.573414921760559
455616244032.111,-0.927269371047227,2.82921180510888,0.346452818824406,0.770210683345795,-1.07849454879761,3.33849263191223,0.56177806854248,0.352197796106339,-0.110313296318054,-0.75245189666748,-0.339563518762589,-0.564369320869446
455616244042.119,-0.953548340442386,2.86140206206974,0.323539989313844,1.20736062526703,-1.74436390399933,3.68924617767334,0.0818495452404022,0.298439383506775,-0.0511210300028324,-0.773164212703705,-0.317924857139587,-0.54876297712326
455616244052.13,-0.985875745588794,2.89449919154574,0.302110774502352,1.42124104499817,-2.35637378692627,3.43232035636902,-0.492761701345444,0.096898227930069,0.0827761813998222,-0.795995593070984,-0.297536045312881,-0.527127385139465
455616244062.142,-1.02067940266174,2.92195102385718,0.287211443887165,1.38479697704315,-2.76982307434082,2.34651207923889,-0.935339510440826,-0.192383229732513,0.125639840960503,-0.817544400691986,-0.283279001712799,-0.501372277736664
455616244072.15,-1.05342753878909,2.93886742883529,0.283384002878177,1.12095415592194,-2.74793672561646,0.742574214935303,-1.25179958343506,-0.360957682132721,0.132781162858009,-0.834458351135254,-0.279606282711029,-0.474867969751358
455616244082.16,-1.07702730016924,2.94439089239498,0.290409377680785,0.682831346988678,-1.96660780906677,-0.678606986999512,-1.28388226032257,-0.446779280900955,0.236740872263908,-0.843681156635284,-0.28634449839592,-0.45410230755806
455616244092.171,-1.08740093146177,2.94070151133164,0.30284539714193,0.125417038798332,-0.866816163063049,-1.39521062374115,-1.10656273365021,-0.444224834442139,0.260881990194321,-0.845127880573273,-0.298237323760986,-0.443636506795883
455616244102.179,-1.08441412402134,2.93019080436759,0.314824363539492,-0.478473693132401,0.264480829238892,-1.53459656238556,-0.896770119667053,-0.372738838195801,0.232039257884026,-0.840580344200134,-0.309649467468262,-0.444456845521927
455616244112.191,-1.06791029823896,2.91447993525079,0.323849748352661,-1.00935018062592,1.4517320394516,-1.49084746837616,-0.731393873691559,-0.304340064525604,0.248834073543549,-0.830648362636566,-0.318218529224396,-0.456902921199799
455616244122.217,-1.03930167135307,2.89435563897164,0.330809411821001,-1.3996080160141,2.43708920478821,-1.5802356004715,-0.548902094364166,-0.24637359380722,0.245013117790222,-0.815309941768646,-0.324808657169342,-0.479342341423035
455616244132.225,-1.00200466025813,2.87007287308352,0.337402004715167,-1.67224562168121,3.06539225578308,-1.82996845245361,-0.299465417861938,-0.166933879256248,0.223883345723152,-0.795047521591187,-0.331036686897278,-0.508246123790741
455616244142.222,-0.959562451924094,2.84180626053885,0.344426913991213,-1.86408376693726,3.34113955497742,-2.13967132568359,0.0555724464356899,-0.0244490187615156,0.184476345777512,-0.77084344625473,-0.337657302618027,-0.540174007415771
455616244152.224,-0.916467343895105,2.81118097455335,0.35136244574948,-1.90574777126312,3.20575737953186,-2.27784323692322,0.445388942956924,0.13911446928978,0.10820110887289,-0.744980037212372,-0.344177335500717,-0.571442663669586
455616244162.232,-0.878143251882469,2.78234919070927,0.35674793070471,-1.71419274806976,2.66231989860535,-2.00253891944885,0.890184104442596,0.324845224618912,0.0361643619835377,-0.721101462841034,-0.349228769540787,-0.598374426364899
455616244172.238,-0.851179824206961,2.76106761973118,0.357928332497565,-1.33855712413788,1.69220948219299,-1.13006210327148,1.2490131855011,0.483269184827805,-0.0761556252837181,-0.704396545886993,-0.350334614515305,-0.617325842380524
455616244182.255,-0.837224111407752,2.75088188862287,0.352874776109167,-0.972919583320618,0.87820965051651,0.0215208418667316,1.45303118228912,0.533707201480865,-0.147285386919975,-0.697019159793854,-0.345596879720688,-0.628273069858551
455616244192.263,-0.832330740114868,2.75113854290522,0.341694946266238,-0.635262548923492,0.392912805080414,1.11028254032135,1.40825235843658,0.509431481361389,-0.148309335112572,-0.696750283241272,-0.335084527730942,-0.63423764705658
455616244202.272,-0.836316633696969,2.76318503549295,0.325526387950796,-0.112075813114643,-0.11946439743042,2.24662637710571,1.2082222700119,0.54730087518692,-0.127249002456665,-0.703202188014984,-0.319807559251785,-0.635003805160522
455616244212.284,-0.847060299871929,2.78567276619056,0.304662329781699,0.300011575222015,-0.462795853614807,3.19072556495667,1.00505089759827,0.505674779415131,-0.124348573386669,-0.714828789234161,-0.299971073865891,-0.6316938996315
455616244222.292,-0.862863424293587,2.81517197900404,0.280783789221867,0.645557999610901,-0.814870417118073,3.77122569084167,0.635962247848511,0.415765434503555,-0.0801871195435524,-0.729956388473511,-0.277108818292618,-0.624799430370331
455616244232.309,-0.883214391698053,2.84741115999396,0.2566509484741,0.879656732082367,-1.33666038513184,3.81910133361816,0.133487701416016,0.316495209932327,0.00334744085557759,-0.747470855712891,-0.253842622041702,-0.613882124423981
455616244242.313,-0.911565278252799,2.87776179627726,0.236232548348356,1.07981753349304,-2.39570045471191,3.24136352539062,-0.353835374116898,0.174486428499222,-0.0572122111916542,-0.76850962638855,-0.234041482210159,-0.595497727394104
455616244252.321,-0.951969431442689,2.90342079492459,0.226254791519686,1.5428968667984,-3.810227394104,1.91288924217224,-0.748864412307739,-0.0173546113073826,-0.201137989759445,-0.793799161911011,-0.224329352378845,-0.565295696258545
455616244262.342,-1.00434056746768,2.92492356417389,0.232601347860489,2.27298259735107,-5.03214120864868,0.221425965428352,-0.938772618770599,-0.228505298495293,-0.23671817779541,-0.821084558963776,-0.230509594082832,-0.52219295501709
455616244272.353,-1.0665324855874,2.94514517271852,0.253827538020135,2.90660405158997,-5.9239649772644,-1.12403130531311,-0.991924285888672,-0.283084273338318,-0.225113078951836,-0.847476959228516,-0.251110672950745,-0.467681705951691
455616244282.361,-1.133463088093,2.96621601631428,0.283286504693265,3.18829369544983,-6.12747192382812,-1.84327149391174,-0.950016140937805,-0.286496847867966,-0.141314044594765,-0.86977756023407,-0.279512673616409,-0.406644344329834
455616244292.373,-1.19584755769766,2.98794403416457,0.313769404960474,3.04435396194458,-5.32334280014038,-1.979731798172,-0.842932105064392,-0.31661319732666,0.00250417669303715,-0.885095238685608,-0.308646202087402,-0.348344624042511
455616244302.384,-1.24244048827508,3.00694007112947,0.339773109572102,2.37708759307861,-3.5570809841156,-1.75278520584106,-0.811261594295502,-0.352533102035522,0.195835322141647,-0.892458498477936,-0.33327317237854,-0.304050654172897
455616244312.392,-1.26392942577657,3.01699557825764,0.35929231195679,1.17449867725372,-1.18765199184418,-1.50485217571259,-0.82066023349762,-0.365871697664261,0.364571869373322,-0.89241349697113,-0.351611822843552,-0.282784759998322
455616244322.388,-1.25580658012218,3.01291557784468,0.373306293544623,-0.315583676099777,1.26020908355713,-1.45053958892822,-0.773147702217102,-0.389149218797684,0.54411506652832,-0.88531482219696,-0.364695996046066,-0.288469284772873
455616244332.414,-1.22136469031139,2.99363336306394,0.383562908584404,-1.67797195911407,3.15020251274109,-1.60293614864349,-0.617412686347961,-0.356424987316132,0.623059213161469,-0.871295809745789,-0.374226868152618,-0.317486733198166
455616244342.422,-1.16957007792914,2.96236911818248,0.391550468633382,-2.59836316108704,4.20929002761841,-1.87566244602203,-0.35647052526474,-0.272018760442734,0.609296560287476,-0.850911676883698,-0.381621986627579,-0.360990256071091
455616244352.42,-1.10918344676227,2.92374683054967,0.397663939163728,-3.07870674133301,4.62175416946411,-2.08576536178589,-0.0274803917855024,-0.118975214660168,0.504037022590637,-0.825470685958862,-0.387265622615814,-0.410637944936752
455616244362.444,-1.04641878579419,2.88187845957119,0.400362975143741,-3.31792759895325,4.61296367645264,-2.0285370349884,0.390656262636185,0.0881626754999161,0.368063181638718,-0.797180950641632,-0.389752626419067,-0.461080759763718
455616244372.452,-0.990481122730803,2.84136784847732,0.397669273583513,-3.27447366714478,3.70553994178772,-1.5938276052475,0.897724628448486,0.345339387655258,0.199548572301865,-0.771030902862549,-0.387270539999008,-0.505502581596375
455616244382.449,-0.956343240377508,2.81071330516967,0.390108295307449,-2.53229188919067,1.69658923149109,-0.73842465877533,1.39676678180695,0.524911403656006,-0.146200403571129,-0.755699276924133,-0.380288571119308,-0.533197164535522
455616244392.474,-0.950981072875477,2.79710317389481,0.381245220367463,-1.15869629383087,-0.517774224281311,0.232155025005341,1.65314149856567,0.565649569034576,-0.422476232051849,-0.755543291568756,-0.372076570987701,-0.539178431034088
455616244402.482,-0.974854187018472,2.80455772799976,0.373959228240001,0.607644081115723,-2.63983583450317,1.26325690746307,1.58035838603973,0.566628336906433,-0.541681349277496,-0.770421862602234,-0.365303874015808,-0.522497117519379
455616244412.509,-1.02338227106725,2.83224855655036,0.366569261880598,2.11406445503235,-4.18393802642822,2.22931432723999,1.34227955341339,0.618638098239899,-0.56831306219101,-0.797144055366516,-0.358414739370346,-0.485901445150375
455616244422.505,-1.08605937171198,2.87334311306701,0.357625419307755,3.11883950233459,-4.95629787445068,2.78900241851807,0.999898552894592,0.503447473049164,-0.483504503965378,-0.828817009925842,-0.350050866603851,-0.436493664979935
455616244432.513,-1.15314496406153,2.9205597818349,0.346532279149434,3.58508610725403,-5.07274866104126,2.9353039264679,0.469634115695953,0.429771929979324,-0.223888948559761,-0.859709799289703,-0.339638262987137,-0.381503492593765
455616244442.526,-1.21753271269965,2.96591786129566,0.334387655639011,3.43479180335999,-4.85118818283081,2.59044814109802,-0.132487908005714,0.22496509552002,0.0187549740076065,-0.886280417442322,-0.328190803527832,-0.326799422502518
455616244452.535,-1.27592485359486,3.00246080402618,0.324846856854162,2.78722238540649,-4.57479381561279,1.77949166297913,-0.574175834655762,-0.0141798499971628,0.195095226168633,-0.906796455383301,-0.319163650274277,-0.275417506694794
455616244462.543,-1.32642076048597,3.02791381023967,0.321084771490911,2.04106831550598,-4.11035346984863,0.73352313041687,-1.21084535121918,-0.348466426134109,0.504624962806702,-0.920700669288635,-0.315596073865891,-0.229585275053978
455616244472.567,-1.36784330210131,3.04387942278241,0.325696677612991,1.42803001403809,-3.45476341247559,-0.388070076704025,-1.21236765384674,-0.498375207185745,0.537798345088959,-0.927982687950134,-0.319968909025192,-0.190966084599495
455616244482.565,-1.39864082504119,3.05237559873789,0.337897363844501,0.87718790769577,-2.57198238372803,-1.23206281661987,-1.1050078868866,-0.508080244064331,0.548353672027588,-0.929507434368134,-0.331504076719284,-0.161619648337364
455616244492.573,-1.41877678009486,3.05446924090886,0.354247393181323,0.315610021352768,-1.74949562549591,-1.67042744159698,-0.926241338253021,-0.43097797036171,0.543307423591614,-0.927091181278229,-0.346884578466415,-0.142031788825989
455616244502.585,-1.43016522843523,3.05055978014713,0.372605983830781,-0.230592668056488,-1.13344752788544,-1.92790710926056,-0.722298502922058,-0.388946890830994,0.583064556121826,-0.922186970710754,-0.364043831825256,-0.130549937486649
455616244512.596,-1.4345916401156,3.04067777217895,0.392483347176602,-0.76628565788269,-0.732801556587219,-2.14635753631592,-0.542358875274658,-0.327095359563828,0.581956386566162,-0.915404796600342,-0.38248410820961,-0.125459209084511
455616244522.604,-1.43692656057801,3.02525189730287,0.41442417217506,-1.20973944664001,-0.948110520839691,-2.45281982421875,-0.365851700305939,-0.208848312497139,0.51156085729599,-0.907158553600311,-0.40266290307045,-0.122171796858311
455616244532.614,-1.4445938323771,3.00573389735721,0.440720398787107,-1.47093260288239,-1.81145966053009,-2.97440361976624,-0.144496485590935,-0.129057660698891,0.417825996875763,-0.897251546382904,-0.426591128110886,-0.113840408623219
455616244542.615,-1.45966296258662,2.98395805847197,0.471862548432466,-1.60197937488556,-2.64666843414307,-3.4121458530426,0.0786640495061874,-0.0518015697598457,0.30479434132576,-0.885228395462036,-0.454546093940735,-0.0987854301929474
455616244552.623,-1.47732561569691,2.96000729386818,0.504123734266947,-1.8446182012558,-2.92204880714417,-3.37544083595276,0.290767014026642,0.106026209890842,0.151547878980637,-0.871775925159454,-0.483040362596512,-0.081723652780056
455616244562.645,-1.49202778180815,2.93295983998001,0.531877910878959,-2.18750667572021,-2.73500919342041,-2.78507590293884,0.475471138954163,0.292873561382294,-0.0337150022387505,-0.85918390750885,-0.507152736186981,-0.0678169801831245
455616244572.665,-1.49783607386819,2.90250901013757,0.550122528317571,-2.55825901031494,-1.87859308719635,-1.71655702590942,0.643558025360107,0.367441952228546,-0.172188654541969,-0.850192546844482,-0.522791683673859,-0.0621405653655529
455616244582.673,-1.48731182815863,2.86836535249582,0.554488131066195,-2.96280598640442,-0.333025127649307,-0.289418876171112,0.768656849861145,0.461902469396591,-0.260801941156387,-0.847209095954895,-0.526508212089539,-0.0708936005830765
455616244592.675,-1.46007883039959,2.83240349018067,0.543106351197619,-3.19778728485107,1.21204483509064,1.20660281181335,0.834645509719849,0.518735706806183,-0.428524523973465,-0.850865602493286,-0.516797840595245,-0.0945925414562225
455616244602.675,-1.42356505143622,2.80099602708375,0.517751479045767,-2.89149403572083,2.28807020187378,2.45290303230286,0.831502854824066,0.453362643718719,-0.552184402942657,-0.859533250331879,-0.494927585124969,-0.127472594380379
455616244612.683,-1.38760862685444,2.78153926346582,0.48335629454871,-1.99608516693115,2.72478461265564,3.30370116233826,0.754200339317322,0.372346371412277,-0.637211620807648,-0.870624899864197,-0.464753597974777,-0.161296054720879
455616244622.705,-1.35919424779549,2.77773667864264,0.444107560508321,-0.791097283363342,2.61879825592041,3.9280412197113,0.628657639026642,0.340922325849533,-0.729002594947815,-0.882853806018829,-0.429652184247971,-0.189652785658836
455616244632.716,-1.33772321889913,2.78953297243954,0.402357033151201,0.41593724489212,2.67379355430603,4.42279672622681,0.379422456026077,0.302782088518143,-0.651520609855652,-0.89526104927063,-0.391588240861893,-0.212523594498634
455616244642.724,-1.31724562939117,2.81277926076409,0.35992214097156,1.25376379489899,2.97359561920166,4.67244291305542,0.081919327378273,0.290967851877213,-0.49733167886734,-0.906000733375549,-0.352201372385025,-0.234769776463509
455616244652.735,-1.29817849985489,2.84213846701019,0.321744297229534,1.81127905845642,2.79066109657288,4.2329740524292,-0.453339427709579,0.289106965065002,-0.342158377170563,-0.913649678230286,-0.316221833229065,-0.255436837673187
455616244662.754,-1.28658921370443,2.8730101241068,0.297046989712031,2.24344110488892,1.80030250549316,2.75073885917664,-0.911499559879303,0.11238469183445,-0.177348598837852,-0.917846143245697,-0.292697817087173,-0.268116503953934
455616244672.762,-1.28918568684804,2.89943515962337,0.292564854964246,2.26758170127869,-0.00119222898501903,0.566862285137177,-1.08530628681183,-0.170621111989021,0.00281919888220727,-0.919790208339691,-0.288409024477005,-0.266094356775284
455616244682.767,-1.313018875546,2.91595395819707,0.309091365433345,1.84041106700897,-2.56954169273376,-1.73295092582703,-1.1261670589447,-0.246801689267159,0.12717404961586,-0.921135127544403,-0.304193198680878,-0.242850929498672
455616244692.777,-1.36003563246244,2.92401810232012,0.343378460102124,1.45320129394531,-4.99718141555786,-3.55960154533386,-0.960942685604095,-0.258880287408829,0.242157071828842,-0.920786440372467,-0.336670249700546,-0.196991056203842
455616244702.785,-1.4234001404475,2.92993862473434,0.388010784045698,1.32532274723053,-6.41787385940552,-4.4575457572937,-0.689689755439758,-0.289681971073151,0.288274258375168,-0.915626406669617,-0.378347814083099,-0.13594576716423
455616244712.796,-1.49634232897119,2.9392748895855,0.4358197928048,1.40728318691254,-7.0141282081604,-4.68535137176514,-0.51450526714325,-0.199886083602905,0.242877572774887,-0.904012799263,-0.42215371131897,-0.0674320161342621
455616244722.812,-1.57259421182253,2.95374777312108,0.483476232774184,1.47490608692169,-6.91322708129883,-4.71891498565674,-0.355293989181519,-0.184874713420868,0.254923671483994,-0.885382890701294,-0.464859783649445,0.0015918182907626
455616244732.82,-1.6460235426251,2.97125503004873,0.52967046359584,1.2751647233963,-6.30280303955078,-4.63272476196289,-0.19415457546711,-0.203918486833572,0.293082773685455,-0.860532939434052,-0.505248963832855,0.0648578852415085
455616244742.827,-1.7080912129916,2.98563277147013,0.57159088474949,0.55364453792572,-5.11766910552979,-4.14035367965698,-0.0226010587066412,-0.187972143292427,0.321705102920532,-0.833127081394196,-0.540970742702484,0.115108259022236
455616244752.838,-1.74784380549091,2.9880723208706,0.606287675725393,-0.673415780067444,-3.36398339271545,-3.18634986877441,0.161950469017029,-0.0561405830085278,0.287655085325241,-0.808923125267029,-0.569820702075958,0.144733235239983
455616244762.846,-1.75549701893008,2.97195480842378,0.631220936999912,-2.09742188453674,-1.12742567062378,-1.86091959476471,0.367825567722321,0.0671053528785706,0.238851562142372,-0.793576300144196,-0.590130865573883,0.148263916373253
455616244772.857,-1.72850178400282,2.9360144298233,0.643887586705043,-3.35567998886108,1.0940408706665,-0.380133628845215,0.550203859806061,0.217054128646851,0.151036232709885,-0.789843142032623,-0.600309133529663,0.12560561299324
455616244782.854,-1.67433272187031,2.88558187733566,0.642274117537239,-4.13434410095215,2.7524082660675,1.02742052078247,0.707458317279816,0.322269290685654,0.000632047711405903,-0.796447575092316,-0.599017977714539,0.0827572345733643
455616244792.862,-1.60783015971333,2.83106195901721,0.626069314695977,-4.25320148468018,3.55765867233276,2.2063581943512,0.808423340320587,0.38947668671608,-0.197559788823128,-0.80978137254715,-0.58596408367157,0.0300030261278152
455616244802.892,-1.54357436785689,2.78320940244166,0.5970069767131,-3.73630452156067,3.67109084129333,3.14132213592529,0.818078994750977,0.388875633478165,-0.426006466150284,-0.826715469360352,-0.562169671058655,-0.0225103758275509
455616244812.899,-1.48948236624997,2.74986345260316,0.558198066342935,-2.72751498222351,3.54501080513,3.91242504119873,0.771036922931671,0.324672073125839,-0.63957017660141,-0.845408260822296,-0.529658615589142,-0.0688954070210457
455616244822.907,-1.44553341809972,2.73357202127457,0.511791258032576,-1.58962154388428,3.5974760055542,4.65276145935059,0.681947231292725,0.349023222923279,-0.795003235340118,-0.865037441253662,-0.489739775657654,-0.108927421271801
455616244832.919,-1.40747220738023,2.7331020978861,0.460710291179457,-0.500205993652344,3.7902398109436,5.13782167434692,0.507443368434906,0.422245591878891,-0.84638899564743,-0.883816659450531,-0.444584459066391,-0.145645916461945
455616244842.929,-1.38270588595114,2.74876816503344,0.412382287301158,0.944536685943604,2.79848694801331,4.89253187179565,0.316071629524231,0.528509080410004,-0.951555490493774,-0.900010228157043,-0.400793045759201,-0.171308279037476
455616244852.937,-1.37996514206622,2.78249428840558,0.375493480366676,2.8514232635498,1.14383161067963,3.93102741241455,0.0270248875021935,0.470384627580643,-1.11634111404419,-0.913438439369202,-0.36673167347908,-0.176459774374962
455616244862.948,-1.39853215767212,2.83201267047193,0.355459339198062,4.5768666267395,-0.514133870601654,2.38751149177551,-0.379428386688232,0.390196323394775,-0.925544857978821,-0.923611164093018,-0.348021030426025,-0.16069783270359
455616244872.959,-1.43804254336553,2.89072838151158,0.353816496792717,5.62579917907715,-2.40273332595825,0.540353417396545,-0.612249851226807,0.309538900852203,-0.708201766014099,-0.929803371429443,-0.346480429172516,-0.124165184795856
455616244882.967,-1.49722903714813,2.95296321457878,0.367139343360429,5.96392393112183,-4.11480140686035,-1.11014568805695,-0.709959447383881,0.139403432607651,-0.448838084936142,-0.930833399295807,-0.358946889638901,-0.0686026960611343
455616244892.97,-1.56817378337457,3.01385317466766,0.39025622008884,5.60046482086182,-5.00625848770142,-2.37925100326538,-0.788097441196442,0.000924040155950934,-0.0685432702302933,-0.924808442592621,-0.38042539358139,-0.00242535583674908
455616244902.989,-1.64117449412698,3.06899327817468,0.418610402359577,4.72658109664917,-5.1220498085022,-3.16493034362793,-0.7564537525177,-0.10325913131237,0.300909817218781,-0.9113929271698,-0.406491219997406,0.0642482712864876
455616244912.997,-1.71096520433421,3.11609238194232,0.449347776735523,3.6457347869873,-4.95040225982666,-3.59136891365051,-0.494593262672424,-0.234246730804443,0.815763235092163,-0.891896605491638,-0.434378147125244,0.125841379165649
455616244923.004,-1.77754113448604,-3.12845686403836,0.481703325403819,2.58229899406433,-4.94054841995239,-3.82319331169128,-0.269673973321915,-0.254529863595963,0.910597801208496,-0.86733466386795,-0.463289350271225,0.181916266679764
455616244933.02,-1.84472769186096,-3.09702792664801,0.515312143270986,1.65492010116577,-5.33353662490845,-3.93895125389099,-0.0516018271446228,-0.297079980373383,0.983254671096802,-0.83769565820694,-0.492806494235992,0.2353885024786
455616244943.028,-1.91504945381888,-3.07174234513396,0.550254513676182,0.801804304122925,-5.87907743453979,-3.99257326126099,0.124355465173721,-0.285186022520065,0.990292608737946,-0.802379786968231,-0.522904217243195,0.287676751613617
455616244953.025,-1.9874232010108,-3.05235874114031,0.586324822218041,-0.0278606619685888,-6.27232503890991,-3.92082691192627,0.234153375029564,-0.217463791370392,0.856224834918976,-0.761726021766663,-0.553303420543671,0.337088733911514
455616244963.05,-2.05792379407022,-3.03958264926499,0.62251713605689,-0.835440337657928,-6.29208326339722,-3.61875462532043,0.329684942960739,-0.115572214126587,0.690839111804962,-0.717914283275604,-0.583081960678101,0.380282074213028
455616244973.058,-2.11907912512968,-3.03546274915336,0.65797973039267,-1.68154871463776,-5.66349363327026,-3.09555506706238,0.344318926334381,-0.0273201167583466,0.461723744869232,-0.675251543521881,-0.611519575119019,0.412406504154205
455616244983.069,-2.16042654393862,-3.04314574991296,0.692206676589999,-2.57650065422058,-4.1774001121521,-2.35183143615723,0.304262757301331,0.0227284878492355,0.248517856001854,-0.639849305152893,-0.638237535953522,0.42807212471962
455616244993.08,-2.16773256272049,-3.06782645146586,0.723897137620776,-3.5853796005249,-1.6498829126358,-1.27807080745697,0.269729852676392,0.149568453431129,0.127921521663666,-0.619659662246704,-0.662309527397156,0.421150743961334
455616245003.088,-2.12989241984625,-3.115971557752,0.750156659250462,-4.6963357925415,1.26711535453796,0.123394772410393,0.394906908273697,0.328985422849655,-0.0841365605592728,-0.620187640190125,-0.681753396987915,0.388045877218246
455616245013.099,-2.04610638392348,3.09369137129397,0.765313132778431,-5.58202314376831,3.97504091262817,1.74571847915649,0.610859930515289,0.377790927886963,-0.283766120672226,-0.641224920749664,-0.692762851715088,0.330015510320663
455616245023.105,-1.92649016733442,3.00253658738051,0.761544488665583,-5.91518115997314,6.12573289871216,3.42155170440674,0.743209779262543,0.455253124237061,-0.407976239919662,-0.678466737270355,-0.690040111541748,0.252046674489975
455616245033.113,-1.79355543559233,2.90982280708698,0.734384382053299,-5.63112258911133,7.14934158325195,4.88998365402222,0.801693081855774,0.490213960409164,-0.613699734210968,-0.723903775215149,-0.670130372047424,0.163977459073067
455616245043.13,-1.66968838524567,2.83232599884421,0.685835318947327,-4.78382921218872,7.33505249023438,5.97105264663696,0.730207443237305,0.470432102680206,-0.780706822872162,-0.770109176635742,-0.633319675922394,0.0764069259166718
455616245053.134,-1.56402680366447,2.77896363076636,0.622866638513221,-3.65229153633118,7.27469110488892,6.63066339492798,0.580150485038757,0.483283460140228,-0.881678283214569,-0.812190890312195,-0.583365857601166,-0.00549822906032205
455616245063.142,-1.47688288617892,2.75013982291348,0.552128477132532,-2.44254302978516,7.03311920166016,7.02495241165161,0.378221571445465,0.529810667037964,-0.99683403968811,-0.847658216953278,-0.524500608444214,-0.079841360449791
455616245073.153,-1.40527961237277,2.7443012244785,0.479990647983667,-1.09384226799011,6.8013482093811,7.08062744140625,0.1257314234972,0.501962542533875,-0.962193608283997,-0.874876916408539,-0.46177089214325,-0.146143779158592
455616245083.164,-1.34636654333346,2.7584797300015,0.412092306727606,0.280886948108673,6.34566593170166,6.83284473419189,-0.110371917486191,0.504668593406677,-0.897566556930542,-0.893305420875549,-0.400527358055115,-0.203919619321823
455616245093.172,-1.30011746438922,2.7889250869302,0.353146766582923,1.62540900707245,5.54047870635986,6.22452592849731,-0.396075844764709,0.487407863140106,-0.816574096679688,-0.904125571250916,-0.345852077007294,-0.250885009765625
455616245103.183,-1.26538623491207,2.83062106466688,0.308443069592119,2.77771615982056,4.54421997070312,5.09667110443115,-0.635871171951294,0.38778880238533,-0.594624519348145,-0.908715009689331,-0.303575545549393,-0.286494225263596
455616245113.193,-1.24429591468196,2.87725790486114,0.28108218941212,3.55855202674866,3.0522472858429,3.59152173995972,-0.831440210342407,0.248327538371086,-0.389473080635071,-0.90999960899353,-0.277395516633987,-0.308143496513367
455616245123.201,-1.23973016629355,2.92240025588767,0.272237040090598,3.86443424224854,1.20895957946777,1.77080571651459,-0.976247429847717,0.0317956954240799,-0.117919340729713,-0.910868048667908,-0.268886774778366,-0.3130804002285
455616245133.221,-1.25425930325616,2.96007053695976,0.281319599614268,3.62919521331787,-1.02664744853973,-0.198737725615501,-1.00876045227051,-0.148539111018181,0.186950087547302,-0.912961959838867,-0.277623623609543,-0.299041152000427
455616245143.232,-1.2927255311438,2.98713005985439,0.306724377367646,3.06690096855164,-3.75974988937378,-2.13920879364014,-0.948557555675507,-0.237430155277252,0.37262088060379,-0.916707336902618,-0.301937520503998,-0.261689484119415
455616245153.24,-1.35637315564149,3.00575530169419,0.346406363450184,2.56946849822998,-6.40897560119629,-3.79418587684631,-0.752419769763947,-0.295215278863907,0.51027911901474,-0.919058501720428,-0.339519828557968,-0.200144246220589
455616245163.252,-1.44425210992185,3.02334231289544,0.396738603822028,2.47010493278503,-8.68090152740479,-4.93075466156006,-0.512844204902649,-0.280961334705353,0.512216746807098,-0.914951205253601,-0.38641232252121,-0.116403788328171
455616245173.261,-1.55427969790783,3.04715322657936,0.453889945367555,2.6130542755127,-10.4074583053589,-5.72608470916748,-0.309214264154434,-0.226055338978767,0.485165268182755,-0.898625731468201,-0.438464909791946,-0.0148436175659299
455616245183.269,-1.68366914730976,3.08128537173725,0.514535784560418,2.75918841362,-11.5984163284302,-6.34808492660522,-0.143135860562325,-0.160716503858566,0.444339245557785,-0.864981830120087,-0.492130786180496,0.0980496853590012
455616245193.281,-1.82904746672755,3.12813029496516,0.575301818130535,2.82417702674866,-12.212459564209,-6.81263875961304,-0.00857408996671438,-0.0808051377534866,0.395690619945526,-0.811204373836517,-0.544088065624237,0.21427945792675
455616245203.292,-1.98640946741403,-3.09524186720121,0.631940099288877,2.74391436576843,-12.3193778991699,-6.99026536941528,0.121615029871464,0.00283593568019569,0.31695094704628,-0.738192200660706,-0.590711295604706,0.325779765844345
455616245213.3,-2.14825660547421,-3.02628695414717,0.67953153414962,2.44968557357788,-11.7741947174072,-6.66250276565552,0.22587987780571,0.0477249547839165,0.183442026376724,-0.6517373919487,-0.62842869758606,0.424635976552963
455616245223.312,-2.299796549106,-2.9580570565813,0.714464486126713,1.8669958114624,-10.3535032272339,-5.65165090560913,0.303858578205109,0.103394113481045,0.0835112109780312,-0.563441097736359,-0.655212938785553,0.503219723701477
455616245233.323,-2.42117041900699,-2.90494575749142,0.737682647504045,0.870630204677582,-7.91539573669434,-3.99620175361633,0.318765133619308,0.114652447402477,-0.021087359637022,-0.488198727369308,-0.672574818134308,0.556152045726776
455616245243.331,-2.48858556921447,-2.88206656781865,0.754756618096434,-0.676036834716797,-4.17909002304077,-1.79691588878632,0.332154899835587,0.064933180809021,-0.0873739868402481,-0.442582756280899,-0.685111403465271,0.578569650650024
455616245253.34,-2.48489063299547,-2.90034842172466,0.771407880049661,-2.61020064353943,0.199670746922493,0.659680485725403,0.438912242650986,0.192399799823761,-0.154058292508125,-0.437691539525986,-0.697145283222198,0.567815601825714
455616245263.35,-2.41183131910665,-2.96020833083625,0.785090332306773,-4.0777006149292,3.95451688766479,2.96111392974854,0.601801156997681,0.355036675930023,-0.2970290184021,-0.471567362546921,-0.706889092922211,0.52719259262085
455616245273.358,-2.29218708283889,-3.04810019134292,0.785582871284045,-4.48309373855591,6.2105565071106,4.75205135345459,0.686682641506195,0.379554867744446,-0.451130390167236,-0.530859887599945,-0.707237362861633,0.466907978057861
455616245283.358,-2.15485483276586,3.13968887686332,0.765757827316718,-4.06488275527954,7.23901081085205,5.99391984939575,0.665036916732788,0.365019530057907,-0.623305797576904,-0.601361989974976,-0.693083465099335,0.397490978240967
455616245293.393,-2.02022000738709,3.05357368791357,0.724831096032291,-3.26940202713013,7.69690942764282,6.89080476760864,0.59410285949707,0.404387801885605,-0.783315718173981,-0.674272537231445,-0.663008987903595,0.325231611728668
455616245303.401,-1.89906981259838,2.98706412427077,0.666185811584947,-2.2219660282135,7.86127948760986,7.48702239990234,0.454148262739182,0.468577772378922,-0.937097370624542,-0.744202554225922,-0.617991805076599,0.253473103046417
455616245313.388,-1.79762925912033,2.94656724370303,0.596253897740559,-0.87723582983017,7.65312719345093,7.62478685379028,0.192570820450783,0.459206014871597,-0.971624076366425,-0.806248784065247,-0.561546742916107,0.186086356639862
455616245323.407,-1.71672545740054,2.93269285749897,0.523535981160501,0.532891154289246,7.24165153503418,7.23487758636475,-0.0873011574149132,0.393759697675705,-0.991703271865845,-0.856851696968079,-0.499945610761642,0.125934839248657
455616245333.415,-1.65062379415899,2.93914968224267,0.45615904924716,1.548464179039,6.75892305374146,6.39924144744873,-0.39481121301651,0.311871558427811,-0.799662232398987,-0.894892156124115,-0.440503150224686,0.0715891048312187
455616245343.421,-1.59868712623814,2.95877075670256,0.399040712020218,2.26490807533264,5.67810583114624,5.33365201950073,-0.589635908603668,0.274536192417145,-0.631073415279388,-0.921075761318207,-0.388534605503082,0.0256962031126022
455616245353.458,-1.56601308264933,2.98932966693537,0.354784525803695,3.11372542381287,3.90986561775208,4.0542631149292,-0.870211720466614,0.208365485072136,-0.47930982708931,-0.937710642814636,-0.347388327121735,-0.00448533333837986
455616245363.466,-1.55564725803015,3.02973152152058,0.326769113189117,3.97469258308411,1.84846389293671,2.40871739387512,-0.937515318393707,0.00216764793731272,-0.278835475444794,-0.946975648403168,-0.320984780788422,-0.0143468976020813
455616245373.463,-1.57020590754499,3.075085427278,0.317974626941538,4.34183883666992,-0.721624672412872,0.390519857406616,-0.972263991832733,-0.107949897646904,-0.0337561964988708,-0.949870407581329,-0.312643349170685,-0.000560821848921478
455616245383.475,-1.61629363394782,3.12021939694066,0.330260457569374,4.1792140007019,-4.01775312423706,-1.87901639938354,-0.831891715526581,-0.225820437073708,0.226522818207741,-0.944979012012482,-0.324289411306381,0.0430236905813217
455616245393.483,-1.69464259363981,-3.11898508285113,0.36016319463851,3.75674366950989,-7.05078840255737,-3.73254799842834,-0.528298616409302,-0.2850241959095,0.396389245986938,-0.928671598434448,-0.3524269759655,0.115604154765606
455616245403.494,-1.79935039504231,-3.07257555900033,0.398861174065995,3.53297710418701,-9.24089622497559,-4.77406978607178,-0.239987283945084,-0.221768781542778,0.44053789973259,-0.897540152072906,-0.388369172811508,0.208784610033035
455616245413.504,-1.92585072610973,-3.0184684130589,0.438183952303443,3.65104031562805,-10.7957820892334,-5.29354000091553,0.00152506725862622,-0.205068320035934,0.379462152719498,-0.849043965339661,-0.424295693635941,0.31479749083519
455616245423.512,-2.07011804533365,-2.95399219711001,0.472746213237932,3.89786434173584,-11.7827663421631,-5.61770486831665,0.161594063043594,-0.226872190833092,0.340273648500443,-0.781619727611542,-0.455333024263382,0.426312655210495
455616245433.524,-2.22395363462711,-2.88118332159627,0.499372838319454,3.92976593971252,-11.9392061233521,-5.746413230896,0.233686596155167,-0.277106374502182,0.332251131534576,-0.697187602519989,-0.478875070810318,0.533486783504486
455616245443.535,-2.37119611910198,-2.80865306906553,0.516367480065255,3.45185875892639,-10.8122386932373,-5.33348512649536,0.199735715985298,-0.303943961858749,0.317078649997711,-0.605619490146637,-0.493724495172501,0.624068200588226
455616245453.543,-2.49222833649543,-2.74780331024827,0.52556262886763,2.46338796615601,-8.39845085144043,-4.30744695663452,0.133608341217041,-0.238275200128555,0.297364979982376,-0.523073673248291,-0.501699805259705,0.688978433609009
455616245463.554,-2.57339719046505,-2.70739464829782,0.532227666144011,1.0846996307373,-5.25777721405029,-2.85364413261414,0.132716491818428,-0.180534154176712,0.173967197537422,-0.463679611682892,-0.50745415687561,0.726286113262177
455616245473.576,-2.60546283461265,-2.69264592784087,0.54110267194688,-0.500347971916199,-1.44435203075409,-1.08017325401306,0.202517554163933,-0.175775483250618,0.0878753066062927,-0.437838584184647,-0.515081465244293,0.736877501010895
455616245483.584,-2.580406651117,-2.70676596719284,0.554687357281155,-2.21540760993958,2.81928610801697,0.774445414543152,0.291691184043884,-0.0284066684544086,0.0503945723176003,-0.452396750450134,-0.526677548885345,0.719685971736908
455616245493.584,-2.50455969454122,-2.74739395147118,0.570560787651723,-3.52851033210754,6.17162895202637,2.30104422569275,0.349760413169861,0.0370675921440125,-0.0585801787674427,-0.500593543052673,-0.54010409116745,0.676530599594116
455616245503.605,-2.39119389611021,-2.80749605542348,0.580842509158733,-4.12564468383789,8.62181758880615,3.50406765937805,0.420283526182175,0.0581278838217258,-0.160552605986595,-0.570094287395477,-0.548728466033936,0.611465096473694
455616245513.613,-2.25323576619699,-2.87884210272928,0.578737335230366,-4.20569181442261,10.2047071456909,4.45010328292847,0.471942901611328,0.232849895954132,-0.349134683609009,-0.649662017822266,-0.546967327594757,0.527982950210571
455616245523.615,-2.1078099999791,-2.94988719418814,0.560619635078239,-3.70482420921326,10.7841396331787,5.02416372299194,0.365636914968491,0.301089733839035,-0.507574081420898,-0.727712750434875,-0.531711101531982,0.433263778686523
455616245533.634,-1.97097303647147,-3.00748084567842,0.529772438233662,-2.74239373207092,10.5807294845581,4.89624261856079,0.170644745230675,0.233226999640465,-0.478130638599396,-0.794744491577148,-0.505336999893188,0.336178123950958
455616245543.642,-1.85480671439861,-3.04515530457255,0.496066422924733,-1.70109248161316,9.3854398727417,4.02001190185547,0.00759047409519553,0.19786311686039,-0.449877291917801,-0.844229876995087,-0.475969791412354,0.246431842446327
455616245553.645,-1.76920321223271,-3.06340224610338,0.469595470649948,-0.676553964614868,7.04674434661865,2.55195736885071,-0.146052554249763,0.178492993116379,-0.412206023931503,-0.874256908893585,-0.452525585889816,0.175771087408066
455616245563.66,-1.72651881806943,-3.06413770857731,0.459237356140258,0.39553102850914,3.13047766685486,0.488945782184601,-0.223693430423737,0.177181839942932,-0.37425422668457,-0.885544240474701,-0.443264603614807,0.13902473449707
455616245573.668,-1.74075970340266,-3.04787718982706,0.468091178745711,1.59834444522858,-1.97377479076385,-1.59644305706024,-0.163289874792099,0.105846703052521,-0.499706268310547,-0.879572093486786,-0.451183617115021,0.150951385498047
455616245583.674,-1.80512563978576,-3.01535952551416,0.489202656762942,2.64019155502319,-5.72098779678345,-2.91519570350647,-0.0438058525323868,0.0773135721683502,-0.420471668243408,-0.858583688735962,-0.469922214746475,0.204956531524658
455616245593.686,-1.89609483902006,-2.97059382583184,0.512186275636481,3.27244758605957,-7.17580652236938,-3.34676170349121,0.0303671844303608,0.107470005750656,-0.256241232156754,-0.825960457324982,-0.490084141492844,0.278580099344254
455616245603.694,-1.99233302040062,-2.91971111895491,0.529362213883252,3.51959800720215,-6.94737005233765,-3.12728476524353,0.0303546525537968,0.116646774113178,-0.148814976215363,-0.787572085857391,-0.504982948303223,0.353160679340363
455616245613.706,-2.08029009286646,-2.86900145034923,0.538684945707477,3.44569897651672,-5.92882251739502,-2.67246317863464,0.0529508702456951,0.128303021192551,-0.106988236308098,-0.749361991882324,-0.513007640838623,0.418664276599884
455616245623.716,-2.15312585153956,-2.82286445968031,0.540733311823661,3.20718216896057,-4.51830387115479,-2.06580829620361,0.0520430654287338,0.0621586218476295,-0.0953019857406616,-0.716029286384583,-0.514764845371246,0.471507430076599
455616245633.724,-2.2017703914088,-2.78564066312912,0.536066337630718,2.75534701347351,-2.36520218849182,-1.2122255563736,0.0124398916959763,-0.0135491648688912,0.00162573088891804,-0.694187343120575,-0.510758101940155,0.507178604602814
455616245643.737,-2.21740560258363,-2.76213217381136,0.527115401001429,1.92744243144989,0.310950458049774,-0.256768345832825,-0.0157110821455717,-0.00875265523791313,0.102083928883076,-0.689794301986694,-0.50304239988327,0.520703554153442
455616245653.747,-2.19972883083227,-2.75393111180566,0.517669087300975,0.864252030849457,2.74177002906799,0.500568091869354,-0.0599782429635525,-0.00541867921128869,0.157941445708275,-0.702701807022095,-0.494855970144272,0.511202216148376
455616245663.755,-2.15759816350656,-2.75722047150064,0.509795910404975,0.0340024530887604,4.4317421913147,0.878623485565186,-0.100836187601089,-0.0238874778151512,0.149518102407455,-0.726831078529358,-0.487999111413956,0.483294397592545
455616245673.768,-2.1002883452326,-2.76585756203217,0.503407035327736,-0.381594777107239,5.54813098907471,0.937206387519836,-0.147965624928474,-0.0446716472506523,0.109628044068813,-0.755995571613312,-0.482412695884705,0.442434936761856
455616245683.778,-2.03748806054508,-2.77461062079593,0.498395192377793,-0.419821858406067,5.88403415679932,0.746391415596008,-0.154619693756104,0.00650472985580564,0.0600305832922459,-0.784421443939209,-0.478016585111618,0.395200133323669
455616245693.786,-1.97997958885045,-2.77882387176886,0.494455001197103,-0.045780673623085,5.36454248428345,0.433268398046494,-0.142954513430595,0.0590856894850731,-0.00607596011832356,-0.807561218738556,-0.474552005529404,0.350207418203354
455616245703.794,-1.93721300027358,-2.77422821194312,0.491248174904362,0.69970840215683,4.15536975860596,0.0443920083343983,-0.13145412504673,0.0989851281046867,-0.0462666414678097,-0.823212027549744,-0.471726834774017,0.315904706716537
455616245713.808,-1.91381906004925,-2.75877188514324,0.489420900748409,1.54685115814209,2.6998188495636,-0.418701589107513,-0.117177546024323,0.0989295467734337,-0.0211096871644258,-0.831186711788177,-0.470114856958389,0.296851277351379
455616245723.816,-1.90842284565125,-2.73435659849561,0.489802367960811,2.14456534385681,1.37445425987244,-0.855898082256317,-0.122486181557178,0.100959926843643,0.0502727963030338,-0.832607209682465,-0.470451503992081,0.292302280664444
455616245733.811,-1.91389745220261,-2.70573244848753,0.492122882793506,2.31185173988342,0.70291405916214,-1.10504806041718,-0.154273480176926,0.060281727463007,0.163350850343704,-0.829964220523834,-0.472497910261154,0.296488016843796
455616245743.837,-1.91415288546371,-2.67975796324129,0.49576587395178,1.86729419231415,1.50476288795471,-1.10304772853851,-0.275665521621704,-0.0593287236988544,0.367455661296844,-0.828262090682983,-0.475705444812775,0.296118557453156
455616245753.845,-1.8920464749604,-2.66582573002986,0.502745937919531,0.543165147304535,3.36787819862366,-1.05382657051086,-0.386873066425323,-0.110421121120453,0.716878175735474,-0.831434428691864,-0.481833517551422,0.276682615280151
455616245763.851,-1.84239637573107,-2.6710122165569,0.515641133355433,-1.2686173915863,5.09686326980591,-1.13515532016754,-0.420352190732956,-0.0496624037623405,0.974402785301208,-0.838085889816284,-0.493092715740204,0.233391433954239
455616245773.869,-1.77236849825923,-2.69513799709743,0.533286057627981,-2.78146433830261,5.93657064437866,-1.23915815353394,-0.371046513319016,-0.00454309489578009,1.13868713378906,-0.843705713748932,-0.508365869522095,0.172409012913704
455616245783.877,-1.69354859724952,-2.73301598606236,0.552593413729991,-3.71355223655701,5.8437328338623,-1.45823061466217,-0.167369320988655,0.0473268367350101,1.19367694854736,-0.844761431217194,-0.524896442890167,0.104220375418663
455616245793.887,-1.61492377131668,-2.78044509495957,0.573417495392935,-4.29507827758789,5.13733911514282,-1.84071350097656,-0.1944420337677,0.0707501024007797,1.11856710910797,-0.839234113693237,-0.542506098747253,0.037057314068079
455616245803.908,-1.53732881947445,-2.83606734723267,0.59470324391783,-4.76722717285156,4.56084394454956,-2.18121361732483,-0.114455565810204,0.0324919745326042,1.08334994316101,-0.827850937843323,-0.560262978076935,-0.0277164559811354
455616245813.916,-1.45776603776018,-2.9015268828832,0.61409542644195,-5.39136934280396,4.12365531921387,-2.3627507686615,-0.0852285996079445,0.182176485657692,1.03020131587982,-0.812079727649689,-0.576219439506531,-0.0921825170516968
455616245823.918,-1.37547689050222,-2.97752706033554,0.628677564741843,-6.02863693237305,3.6848247051239,-2.38741493225098,0.0313268266618252,0.246431395411491,0.908697247505188,-0.793427050113678,-0.588075697422028,-0.156972974538803
455616245833.929,-1.2924361807537,-3.06096356023603,0.636085654744589,-6.4502649307251,3.27028918266296,-2.25697922706604,0.0889991819858551,0.268092930316925,0.779374301433563,-0.773462653160095,-0.59405118227005,-0.221039935946465
455616245843.937,-1.21054471150944,3.13800083377028,0.635151697299077,-6.42194890975952,3.17363977432251,-1.95376944541931,0.140393406152725,0.241828680038452,0.595256805419922,-0.753308415412903,-0.593299627304077,-0.283763855695724
455616245853.933,-1.13074694614024,3.05657900449326,0.626500364877518,-6.37827825546265,3.17451477050781,-1.71064209938049,0.0640391036868095,0.261255383491516,0.669683277606964,-0.732908129692078,-0.586313366889954,-0.345083087682724
455616245863.944,-1.05493345693383,2.97817757254848,0.612005107088788,-6.31757593154907,2.93910431861877,-1.65141916275024,0.026727519929409,0.263734042644501,0.557393908500671,-0.71198445558548,-0.574509799480438,-0.403753131628036
455616245873.952,-0.984872277455253,2.90183131253779,0.593850309440521,-6.2957444190979,2.6095449924469,-1.7870454788208,-0.0769355595111847,0.179246217012405,0.544737994670868,-0.690551042556763,-0.559556245803833,-0.458296924829483
455616245883.978,-0.917567006595248,2.82706109550261,0.572795955382595,-6.30504941940308,2.63450574874878,-1.94286060333252,-0.109572924673557,0.153144136071205,0.571296632289886,-0.667374074459076,-0.541983842849731,-0.510749757289886
455616245893.99,-0.851307877205711,2.75371280645745,0.547476731726347,-6.45251226425171,2.7487690448761,-1.97907483577728,-0.0990006923675537,0.182735353708267,0.478788197040558,-0.642210245132446,-0.52053439617157,-0.562681019306183
455616245903.998,-0.785437289224741,2.68178108320623,0.516136706097702,-6.73964071273804,3.02865362167358,-1.93538916110992,-0.0775024816393852,0.183144763112068,0.463800728321075,-0.615017652511597,-0.493523806333542,-0.614969551563263
455616245914.007,-0.71730250313484,2.61151061756269,0.47800072002491,-7.08534526824951,3.60782027244568,-1.9020482301712,0.00303293042816222,0.255186170339584,0.445560991764069,-0.583675622940063,-0.460004895925522,-0.669117510318756
455616245924.03,-0.648240663182686,2.54411172719114,0.433144146090554,-7.34196186065674,4.00992584228516,-1.84281206130981,0.140463441610336,0.339175522327423,0.24191802740097,-0.548025667667389,-0.419726669788361,-0.723531186580658
455616245934.038,-0.583238743191933,2.48284771183346,0.383833065942288,-7.20098066329956,4.05099868774414,-1.70676183700562,0.290777683258057,0.407115906476974,0.0289076082408428,-0.510656833648682,-0.374477356672287,-0.773948490619659
455616245944.039,-0.526949912902272,2.42946741798492,0.334731888222231,-6.62644481658936,3.58723521232605,-1.65786242485046,0.408856064081192,0.539834916591644,-0.231906339526176,-0.474987655878067,-0.328515946865082,-0.816372454166412
455616245954.044,-0.484795969566916,2.38458087862204,0.292151599138761,-5.44661426544189,2.54898142814636,-1.67077004909515,0.584769368171692,0.668369174003601,-0.645640730857849,-0.44628056883812,-0.288013309240341,-0.847279191017151
455616245964.052,-0.458119998058282,2.35102588962641,0.262801889882316,-3.57388305664062,1.4989949464798,-1.47430145740509,0.732513189315796,0.663977324962616,-0.857907295227051,-0.427078038454056,-0.259787261486053,-0.866091728210449
455616245974.069,-0.444002601246445,2.33116595530345,0.249489068931478,-1.54128646850586,0.73156076669693,-1.01560413837433,0.854337573051453,0.723959684371948,-0.90923672914505,-0.416257739067078,-0.246908873319626,-0.875080287456512
455616245984.09,-0.440125049907567,2.32528949308281,0.248065839216266,-0.0442457385361195,0.0978541970252991,-0.243242457509041,0.916032016277313,0.776336967945099,-0.90015584230423,-0.413010746240616,-0.24552945792675,-0.87700480222702
455616245994.098,-0.442270202794565,2.33235831001005,0.250833545873228,0.676055669784546,-0.0216628052294254,0.766548335552216,0.853410959243774,0.777248978614807,-0.766987323760986,-0.414598673582077,-0.24821150302887,-0.875499248504639
455616246004.099,-0.443565829312328,2.35115577209722,0.251266200833812,0.840161979198456,0.490987509489059,1.91251909732819,0.793677270412445,0.741672575473785,-0.629148781299591,-0.415686517953873,-0.248630598187447,-0.874864280223846
455616246014.102,-0.440778027945409,2.38028195045294,0.247680167587389,0.904192328453064,1.16339790821075,2.94305849075317,0.711353182792664,0.65229058265686,-0.550761282444,-0.413623720407486,-0.245155587792397,-0.876820504665375
455616246024.11,-0.435269902306251,2.41768293537017,0.242637573079939,1.16700077056885,1.50175523757935,3.6518611907959,0.587541818618774,0.529066860675812,-0.51825749874115,-0.40930387377739,-0.240263774991035,-0.880195260047913
455616246034.129,-0.432891095844113,2.46174165198597,0.240328904707521,1.75125074386597,1.16341984272003,4.06416320800781,0.480682700872421,0.439712762832642,-0.52122551202774,-0.407440513372421,-0.238022089004517,-0.88166755437851
455616246044.139,-0.439870599397494,2.51118609497736,0.243799691415597,2.54512095451355,0.215193197131157,4.22061157226562,0.357046991586685,0.375592738389969,-0.497972726821899,-0.41322985291481,-0.241391688585281,-0.878049612045288
455616246054.147,-0.46112726736853,2.56270792078293,0.254854971720283,3.35993647575378,-1.25909996032715,3.89209127426147,0.0687082782387733,0.35041743516922,-0.387235432863235,-0.430585712194443,-0.252105057239532,-0.866625070571899
455616246064.16,-0.499130586126357,2.61078272852556,0.274059473156452,3.97161316871643,-2.95449328422546,2.95880484580994,-0.20872637629509,0.189052879810333,-0.258741110563278,-0.460798770189285,-0.270641624927521,-0.845232248306274
455616246074.172,-0.551627128043717,2.64919057682432,0.300478708110388,4.12704229354858,-4.57616281509399,1.46643352508545,-0.436541259288788,-0.0682955682277679,0.0201634149998426,-0.500592529773712,-0.295977503061295,-0.81351363658905
455616246084.18,-0.618245177973662,2.67423647276538,0.331921057002573,3.84060215950012,-6.31482934951782,-0.140661746263504,-0.466769933700562,-0.200461581349373,0.178789168596268,-0.547970056533813,-0.325859844684601,-0.770418167114258
455616246094.19,-0.697058814579693,2.68720498762607,0.367791125386738,3.49434852600098,-7.75889778137207,-1.56391096115112,-0.485241115093231,-0.299273580312729,0.335788249969482,-0.599033176898956,-0.359555155038834,-0.715457439422607
455616246104.211,-0.783960008904813,2.69180025586199,0.408419733025946,3.21173071861267,-8.73569202423096,-2.67614817619324,-0.40118134021759,-0.355922728776932,0.462806820869446,-0.64801299571991,-0.397159546613693,-0.649879574775696
455616246114.219,-0.876346556959598,2.69241961428848,0.452440342229265,2.94035243988037,-9.31391525268555,-3.34686207771301,-0.284021705389023,-0.32492333650589,0.45743802189827,-0.691091239452362,-0.43716162443161,-0.575571596622467
455616246124.221,-0.969334269406927,2.6929790395279,0.497102638539266,2.66113877296448,-9.17921829223633,-3.5492103099823,-0.190093025565147,-0.260042369365692,0.448351502418518,-0.724717140197754,-0.476880848407745,-0.497362732887268
455616246134.22,-1.05384287831745,2.69538590485114,0.53789317342225,2.20047044754028,-7.92722320556641,-3.22952604293823,-0.156840905547142,-0.256913512945175,0.440007150173187,-0.746570944786072,-0.512327790260315,-0.424443185329437
455616246144.228,-1.11649489238121,2.69675036930276,0.568363034698565,1.2495049238205,-5.53843069076538,-2.4040904045105,-0.128581658005714,-0.26702943444252,0.4832763671875,-0.757297873497009,-0.53825318813324,-0.369842529296875
455616246154.255,-1.1472962873632,2.69077501568628,0.583831071154574,-0.171443372964859,-2.68366360664368,-1.33765459060669,-0.118656270205975,-0.161864534020424,0.49704173207283,-0.76064670085907,-0.55122447013855,-0.342882186174393
455616246164.267,-1.14230999009411,2.67364792085775,0.583400641519648,-1.69837141036987,0.310974359512329,-0.2948217689991,-0.0509763397276402,-0.114967249333858,0.485135942697525,-0.7591432929039,-0.550865292549133,-0.346769243478775
455616246174.275,-1.10412378513742,2.646193859756,0.568115396915192,-3.05110812187195,2.91152548789978,0.592957317829132,0.0726384073495865,-0.0764880254864693,0.511582016944885,-0.7527836561203,-0.538044452667236,-0.379242569208145
455616246184.268,-1.04626703758109,2.6138759840203,0.540668620799987,-3.89204668998718,4.37420606613159,1.25766396522522,0.174137771129608,0.0197295006364584,0.405905067920685,-0.742100417613983,-0.51470935344696,-0.42937308549881
455616246194.292,-0.983331353532712,2.58354853718529,0.505608680222533,-4.08970880508423,4.83177995681763,1.6867800951004,0.233987897634506,0.0657609477639198,0.247630402445793,-0.728204846382141,-0.484340041875839,-0.484904587268829
455616246204.3,-0.924934514656684,2.55990332140151,0.467659376984291,-3.80801272392273,4.65795660018921,1.93724966049194,0.280919104814529,0.106956668198109,0.0996987819671631,-0.712834358215332,-0.450798213481903,-0.537259817123413
455616246214.296,-0.872689713317545,2.54351424200552,0.430419685932824,-3.35264277458191,4.5008659362793,2.00048661231995,0.266623288393021,0.107971847057343,-0.0810344442725182,-0.696188747882843,-0.417252242565155,-0.584141969680786
455616246224.323,-0.820465280554868,2.53302473666471,0.395344778381572,-2.9475519657135,4.9306263923645,1.99167537689209,0.173026755452156,0.100977227091789,-0.167759582400322,-0.675040900707245,-0.385126382112503,-0.629283249378204
455616246234.331,-0.764807892504827,2.5276834758671,0.361843409887258,-2.62030363082886,5.50171184539795,2.06266760826111,0.120081648230553,0.152323454618454,-0.241541787981987,-0.647562742233276,-0.353998869657516,-0.674794256687164
455616246244.352,-0.705366978525246,2.52779859315726,0.330050766163467,-2.25362253189087,6.09632921218872,2.16228628158569,0.095178447663784,0.191263303160667,-0.327297687530518,-0.613321125507355,-0.324091047048569,-0.720279216766357
455616246254.353,-0.642314032984435,2.53286307744657,0.301447517332037,-1.81879341602325,6.54100513458252,2.15014743804932,0.149185821413994,0.215329274535179,-0.343991041183472,-0.572037398815155,-0.296902775764465,-0.764605760574341
455616246264.361,-0.580260780372021,2.5418909972064,0.277716754049651,-1.31625878810883,6.36644649505615,2.03620481491089,0.19824081659317,0.222204431891441,-0.343399345874786,-0.527235567569733,-0.274160593748093,-0.804275214672089
455616246274.372,-0.525651273195397,2.5534004624818,0.260133963039264,-0.777828276157379,5.50987339019775,1.79939699172974,0.245697677135468,0.217766046524048,-0.29349958896637,-0.484894454479218,-0.25721001625061,-0.83589494228363
455616246284.383,-0.484090295853595,2.56509637091849,0.24934358216625,-0.27415856719017,4.0389838218689,1.40343976020813,0.275229334831238,0.220187082886696,-0.270584493875504,-0.451010584831238,-0.246767893433571,-0.857726693153381
455616246294.391,-0.460626749678566,2.57493603178208,0.24538557724757,0.199901357293129,2.06969428062439,0.900246441364288,0.303843915462494,0.200724557042122,-0.257021278142929,-0.431193768978119,-0.242930367588997,-0.868940055370331
455616246304.403,-0.458282514897896,2.58217323987565,0.248297124393398,0.695992529392242,-0.149173513054848,0.367873340845108,0.309974879026413,0.175334349274635,-0.247587129473686,-0.428840845823288,-0.245753660798073,-0.869310438632965
455616246314.413,-0.476283859921313,2.5871532803792,0.25791308283986,1.19895553588867,-2.14277195930481,-0.118255808949471,0.287172108888626,0.123669788241386,-0.205676823854446,-0.443315297365189,-0.255063205957413,-0.859310388565063
455616246324.421,-0.509868024324013,2.59076898818604,0.273473189288453,1.67726802825928,-3.67849826812744,-0.52141672372818,0.222641095519066,0.0898556187748909,-0.153949543833733,-0.46992501616478,-0.270077168941498,-0.840374171733856
455616246334.432,-0.557210721950816,2.59412922701212,0.294692719575178,2.12309837341309,-5.015625,-0.89201408624649,0.129360988736153,0.0634713396430016,-0.116458363831043,-0.506024181842804,-0.29044583439827,-0.8121457695961
455616246344.445,-0.618665614968617,2.5978979405489,0.321723687094261,2.5559983253479,-6.36461067199707,-1.30734896659851,0.0497652478516102,0.0241337958723307,-0.07867731153965,-0.550192475318909,-0.316202282905579,-0.772854685783386
455616246354.453,-0.693075231521612,2.60268178446372,0.354775021427406,2.99976491928101,-7.54066801071167,-1.77551329135895,-0.0257295649498701,-0.0572989396750927,-0.0142488218843937,-0.599117875099182,-0.347379416227341,-0.721377372741699
455616246364.463,-0.773180771637025,2.60890130527014,0.392182693068481,3.17759680747986,-7.74328565597534,-2.15520095825195,-0.128231152892113,-0.165111199021339,0.153634324669838,-0.645389437675476,-0.382206290960312,-0.661355257034302
455616246374.486,-0.846570689462184,2.61500854982036,0.428976148606023,2.81488847732544,-6.78883457183838,-2.29684901237488,-0.272055059671402,-0.217666015028954,0.263670921325684,-0.681146204471588,-0.415939927101135,-0.602522850036621
455616246384.494,-0.901752496585874,2.61820359027092,0.460213620665002,1.9900416135788,-4.81930065155029,-2.15650129318237,-0.375810593366623,-0.270032852888107,0.331401199102402,-0.702802658081055,-0.444139510393143,-0.555705368518829
455616246394.494,-0.927950879247435,2.61557687029709,0.48200311876854,0.836601972579956,-1.99373865127563,-1.75004756450653,-0.422999203205109,-0.292517989873886,0.415132910013199,-0.709202945232391,-0.463555008172989,-0.531176030635834
455616246404.514,-0.92010144214529,2.60563276865783,0.491366201317952,-0.469860196113586,1.06802225112915,-1.10170364379883,-0.34733122587204,-0.275010526180267,0.462983161211014,-0.701527416706085,-0.471830904483795,-0.534073829650879
455616246414.522,-0.88458928415037,2.58936385620005,0.487254305709472,-1.65908229351044,3.24250745773315,-0.400858968496323,-0.211279258131981,-0.189635410904884,0.429162383079529,-0.683618187904358,-0.468201488256454,-0.559869170188904
455616246424.525,-0.834362506951721,2.56947106390866,0.47321546900227,-2.41269135475159,4.3252739906311,-0.0222474969923496,-0.161363482475281,-0.191115096211433,0.396150082349777,-0.659452557563782,-0.45575076341629,-0.597840785980225
455616246434.542,-0.777454492939286,2.54726022349374,0.454603304683826,-2.79975605010986,4.76182699203491,-0.0651781857013702,-0.0980788394808769,-0.228115126490593,0.396801114082336,-0.630223155021667,-0.439105957746506,-0.640316128730774
455616246444.55,-0.719183792561012,2.5226655263601,0.434505743560873,-3.03830361366272,4.74879598617554,-0.334405928850174,-0.0292591340839863,-0.218411654233932,0.349625110626221,-0.59755665063858,-0.420962125062943,-0.682434558868408
455616246454.555,-0.660832148161998,2.49544116982458,0.413254303003315,-3.2747323513031,4.70169878005981,-0.632342576980591,0.0643640831112862,-0.146931141614914,0.326202154159546,-0.562105774879456,-0.401591807603836,-0.723022222518921
455616246464.565,-0.604532699490764,2.46721880609625,0.390247646477224,-3.40627813339233,4.42605400085449,-0.746372759342194,0.229654118418694,0.000794040854088962,0.223005056381226,-0.52564412355423,-0.380417466163635,-0.760907888412476
455616246474.573,-0.555993383528474,2.44188689744713,0.366550314661084,-3.18712568283081,3.70803713798523,-0.624248445034027,0.507755935192108,0.160933062434196,0.0306990388780832,-0.492725998163223,-0.358397036790848,-0.792951822280884
455616246484.594,-0.517549006048278,2.42308819363161,0.344162748611828,-2.57408142089844,2.75076818466187,-0.205899566411972,0.766092538833618,0.250158876180649,-0.168057009577751,-0.465738534927368,-0.337408632040024,-0.818072736263275
455616246494.596,-0.493634861133313,2.41543145944131,0.325152148529054,-1.82738697528839,1.95382988452911,0.465527534484863,0.891385078430176,0.368143767118454,-0.26998770236969,-0.449002265930176,-0.319452971220016,-0.834473967552185
455616246504.604,-0.479478375767821,2.41883360725965,0.308771920589695,-1.12038683891296,1.39397192001343,1.25263833999634,0.919007062911987,0.470636904239655,-0.352615147829056,-0.439499616622925,-0.303888857364655,-0.845276057720184
455616246514.625,-0.473346052680403,2.43411547258592,0.295037907374909,-0.354716300964355,0.958867132663727,2.16403698921204,0.892742991447449,0.486531138420105,-0.396441668272018,-0.436169475317001,-0.290776133537292,-0.851589918136597
455616246524.626,-0.472833823164777,2.46188851327161,0.283512582887718,0.339720457792282,0.866746604442596,3.12473940849304,0.794911742210388,0.431554675102234,-0.402370393276215,-0.437230437994003,-0.279729723930359,-0.85474020242691
455616246534.634,-0.470381396252599,2.49831226319591,0.271037890312691,0.473131507635117,1.3885725736618,3.84401226043701,0.522572338581085,0.371582895517349,-0.216341510415077,-0.436680614948273,-0.267731577157974,-0.858853816986084
455616246544.643,-0.463111002225826,2.53830608352127,0.254766263394633,0.216794461011887,1.87467730045319,4.2668023109436,0.2576924264431,0.297826111316681,-0.136835336685181,-0.43231400847435,-0.252019226551056,-0.865789175033569
455616246554.657,-0.452306218052519,2.57955924129988,0.235819176701142,0.0304362531751394,2.13292145729065,4.45110559463501,-0.0143859153613448,0.203640788793564,-0.105798691511154,-0.424945145845413,-0.233639568090439,-0.874547958374023
455616246564.665,-0.437413829472849,2.61884686921521,0.217160610917864,-0.0435269735753536,2.47789454460144,4.13233518600464,-0.389848113059998,0.0908240079879761,-0.130165368318558,-0.413649201393127,-0.215457797050476,-0.88457465171814
455616246574.676,-0.417141031563497,2.65060417863986,0.202963448853095,0.0203257296234369,2.70198035240173,3.12114191055298,-0.799395978450775,-0.096660204231739,-0.0410845801234245,-0.396832019090652,-0.201572835445404,-0.895484626293182
455616246584.686,-0.396276002381178,2.67022932432873,0.196000292420339,0.157513633370399,2.37259387969971,1.65479171276093,-1.07298862934113,-0.271362453699112,-0.076023556292057,-0.378595292568207,-0.194747775793076,-0.904841899871826
455616246594.694,-0.377190224463035,2.67533341070734,0.195979719745829,0.18090333044529,1.86953890323639,0.0761883035302162,-1.21419548988342,-0.430257141590118,0.00904365163296461,-0.361259251832962,-0.194727599620819,-0.911906182765961
455616246604.709,-0.361399870467065,2.66690836850488,0.199594815874632,-0.0249255187809467,1.26830196380615,-1.18462407588959,-1.18642520904541,-0.515335559844971,0.0999529436230659,-0.346564322710037,-0.198272213339806,-0.916832208633423
455616246614.717,-0.346696658277025,2.64882767657579,0.202925554097458,-0.402438223361969,1.11009860038757,-1.93206369876862,-1.07991421222687,-0.548143863677979,0.157698303461075,-0.33282071352005,-0.20153571665287,-0.921202301979065
455616246624.725,-0.327760380759972,2.62493852935398,0.203257388577183,-0.86331695318222,1.54334437847137,-2.29484748840332,-0.960078954696655,-0.530759513378143,0.234694629907608,-0.315296411514282,-0.201860725879669,-0.927275836467743
455616246634.737,-0.301800746472767,2.5965878243886,0.199060725761982,-1.39276719093323,2.19648218154907,-2.58555865287781,-0.822383880615234,-0.500127255916595,0.294529587030411,-0.291370362043381,-0.197748690843582,-0.935948073863983
455616246644.747,-0.269050671140171,2.56365031719688,0.189928435180073,-1.90938758850098,2.76239800453186,-2.9315197467804,-0.635753154754639,-0.433602124452591,0.354510009288788,-0.261036396026611,-0.188788622617722,-0.94668835401535
455616246654.755,-0.233863818271432,2.52625694848331,0.176831715238597,-2.24448347091675,2.78376483917236,-3.3392813205719,-0.394815921783447,-0.298087447881699,0.398648768663406,-0.228124156594276,-0.175911590456963,-0.957608759403229
455616246664.767,-0.204470823979892,2.48504826599087,0.162956636048519,-2.20014047622681,2.02750158309937,-3.77134227752686,-0.0791819915175438,-0.0422771722078323,0.316446721553802,-0.200359031558037,-0.162236377596855,-0.966196477413177
455616246674.778,-0.187178286265324,2.44221483227554,0.152198098680505,-1.70542287826538,0.662431478500366,-3.94568204879761,0.364401787519455,0.202483981847763,0.137602970004082,-0.183936089277267,-0.151611179113388,-0.971175372600555
455616246684.786,-0.188649300112804,2.40418337078868,0.149917759457455,-0.623957872390747,-1.17938613891602,-3.49713230133057,0.746845483779907,0.398563355207443,-0.0450403317809105,-0.185428842902184,-0.149356812238693,-0.971240818500519
455616246694.796,-0.20753695386073,2.37788245288471,0.157714058474,0.515342056751251,-2.57510757446289,-2.38755202293396,1.17241084575653,0.558077275753021,-0.173038199543953,-0.203493028879166,-0.15706105530262,-0.966396629810333
455616246704.807,-0.234699166807813,2.36696429228646,0.169090739364494,0.92975914478302,-2.91675615310669,-0.924957871437073,1.21461594104767,0.653179943561554,-0.148372650146484,-0.22923381626606,-0.168286129832268,-0.958713531494141
455616246714.815,-0.26412564082721,2.37170371082313,0.177086312571598,0.880277872085571,-2.85544204711914,0.662519156932831,1.12864089012146,0.717009961605072,-0.176057115197182,-0.256982564926147,-0.176162198185921,-0.950224637985229
455616246724.827,-0.296305970235422,2.39205120802376,0.18092886443463,0.958351850509644,-2.84509825706482,2.16978335380554,0.928794026374817,0.640758812427521,-0.21479919552803,-0.287223011255264,-0.179943352937698,-0.940809905529022
455616246734.838,-0.330023985256276,2.42493180842609,0.182812584056334,1.26207447052002,-2.75388312339783,3.26223206520081,0.667557775974274,0.578219354152679,-0.212613195180893,-0.318665564060211,-0.181795999407768,-0.930270075798035
455616246744.846,-0.365939318722557,2.46682440042925,0.18441773559398,1.65738964080811,-2.86866354942322,3.96883845329285,0.387281447649002,0.472314596176147,-0.251220196485519,-0.351758986711502,-0.183374166488647,-0.917953968048096
455616246754.857,-0.404326084994235,2.51437204065545,0.1867655358279,2.07117629051208,-2.9740252494812,4.29342079162598,0.0300516951829195,0.32931262254715,-0.154298350214958,-0.386558055877686,-0.185681656002998,-0.903379857540131
455616246764.869,-0.443470510982566,2.5632555824537,0.18999277423114,2.31249523162842,-3.01528406143188,4.1904616355896,-0.229370459914207,0.197457760572433,-0.10427300632,-0.421355873346329,-0.188851803541183,-0.887014210224152
455616246774.877,-0.483738657075223,2.60941347369247,0.194154822055497,2.42057085037231,-3.17586851119995,3.71801900863647,-0.573889374732971,0.0735983178019524,-0.109855927526951,-0.456353545188904,-0.192937299609184,-0.868629157543182
455616246784.884,-0.522918394865359,2.64835324255793,0.201966129158447,2.56575655937195,-3.14078807830811,2.65596294403076,-0.904233992099762,-0.154186218976974,-0.0359946526587009,-0.489259660243988,-0.200595885515213,-0.848755717277527
455616246794.899,-0.559516251556978,2.67510580002534,0.217464466165535,2.69552731513977,-3.10764074325562,1.00610077381134,-1.04936695098877,-0.402913093566895,0.0515653491020203,-0.518275260925293,-0.215754508972168,-0.827551066875458
455616246804.907,-0.594840767766391,2.68755195908962,0.241140435928817,2.59500122070312,-3.31183791160583,-0.673352003097534,-1.0352588891983,-0.539220154285431,0.145261883735657,-0.544163107872009,-0.23881022632122,-0.804273724555969
455616246814.918,-0.630397204176321,2.68777049142601,0.268842872698433,2.14391136169434,-3.6434965133667,-1.82014799118042,-0.878165483474731,-0.485558867454529,0.253508031368256,-0.568291425704956,-0.265616059303284,-0.778776586055756
455616246824.925,-0.66853512921864,2.67928651661141,0.296822903973855,1.60845983028412,-4.18824529647827,-2.48276972770691,-0.705439984798431,-0.403317242860794,0.295595943927765,-0.592732012271881,-0.292483538389206,-0.750414669513702
455616246834.933,-0.707935618348517,2.6653704664712,0.325141660508243,1.26750886440277,-4.35385847091675,-2.91768980026245,-0.567748308181763,-0.450805395841599,0.371940046548843,-0.616196393966675,-0.319443017244339,-0.719901442527771
455616246844.948,-0.740385263438389,2.64721189462787,0.352653471494404,0.776362240314484,-3.61230325698853,-3.14369297027588,-0.473706871271133,-0.480553805828094,0.475387036800385,-0.633058845996857,-0.345389187335968,-0.692779004573822
455616246854.954,-0.759001457564322,2.62361468092393,0.374979192338799,-0.116659879684448,-2.37058711051941,-3.1065821647644,-0.362551599740982,-0.390491217374802,0.475739389657974,-0.64037811756134,-0.366253167390823,-0.675110757350922
455616246864.962,-0.760939171578349,2.59412759134996,0.388428203613805,-1.17744302749634,-0.929840266704559,-2.81996011734009,-0.20591638982296,-0.270786702632904,0.463911265134811,-0.638230323791504,-0.378734171390533,-0.670240581035614
455616246874.978,-0.747585469076217,2.56050320134086,0.391771043863151,-2.10283279418945,0.354547560214996,-2.37320518493652,-0.0015540886670351,-0.136759325861931,0.403418064117432,-0.628359258174896,-0.381825864315033,-0.677771091461182
455616246885.004,-0.723639722850472,2.52562271127804,0.385647141142064,-2.7689847946167,1.2787047624588,-1.84392392635345,0.212730795145035,-0.0151223000138998,0.29584738612175,-0.613487660884857,-0.376158833503723,-0.694361209869385
455616246895.012,-0.694077856868077,2.49273965751767,0.371468222669524,-3.1355242729187,1.85969066619873,-1.23547983169556,0.406671166419983,0.133659571409225,0.123079210519791,-0.59604799747467,-0.362983912229538,-0.716218829154968
455616246905.009,-0.663922367151218,2.46600293395006,0.351119386398515,-3.12444376945496,2.12023210525513,-0.463871479034424,0.5762038230896,0.266464978456497,-0.0747861862182617,-0.578614711761475,-0.343949109315872,-0.739529609680176
455616246915.016,-0.623860683420646,2.4454274500578,0.322099514209943,-2.76652860641479,2.27376174926758,0.436172008514404,0.669883787631989,0.366806000471115,-0.227806463837624,-0.554130613803864,-0.316558808088303,-0.7698894739151
455616246925.024,-0.597374710029784,2.44124831666151,0.295980656633992,-2.23753547668457,2.6485960483551,1.42365765571594,0.737157940864563,0.391485750675201,-0.346070021390915,-0.538015484809875,-0.291678011417389,-0.790862381458282
455616246935.039,-0.5670113231967,2.44911404417688,0.267408450255011,-1.90248942375183,3.45430636405945,2.46265244483948,0.734652876853943,0.445598840713501,-0.306555926799774,-0.51802384853363,-0.264232873916626,-0.813530743122101
455616246945.051,-0.5325491783107,2.46791972044579,0.236404779836482,-1.60759890079498,4.02702379226685,3.38617038726807,0.658007442951202,0.543077349662781,-0.32449471950531,-0.493609249591827,-0.234208926558495,-0.83755362033844
455616246955.059,-0.497718496690646,2.49546234327299,0.206831694154681,-1.11579096317291,4.05510711669922,3.884037733078,0.557136058807373,0.500098943710327,-0.323052227497101,-0.467246532440186,-0.205360159277916,-0.859946429729462
455616246965.069,-0.466780937222962,2.52782134513466,0.182370348563577,-0.557102084159851,3.56265664100647,3.93733477592468,0.422501116991043,0.420100122690201,-0.293769627809525,-0.442551165819168,-0.181361123919487,-0.878212153911591
455616246975.071,-0.443675855186546,2.56188861049693,0.164224164267103,-0.0235194433480501,2.63935279846191,3.75408601760864,0.232767194509506,0.345325976610184,-0.265878111124039,-0.423486799001694,-0.163486987352371,-0.891028046607971
455616246985.079,-0.431635311593329,2.59580013626087,0.152614191376304,0.493485569953918,1.41296148300171,3.43630361557007,0.0577202178537846,0.278182119131088,-0.242319285869598,-0.413494139909744,-0.152022451162338,-0.897725880146027
455616246995.1,-0.433050358291061,2.62794754527612,0.147885917380246,1.03600585460663,-0.0273651164025068,2.94519448280334,-0.125435769557953,0.18746280670166,-0.239775687456131,-0.415061056613922,-0.147347450256348,-0.897782266139984
455616247005.111,-0.447677578310392,2.65596447737657,0.150618423657173,1.54605853557587,-1.3699095249176,2.17542219161987,-0.360968083143234,0.0408729463815689,-0.195741355419159,-0.427972346544266,-0.150049582123756,-0.891249001026154
455616247015.119,-0.473174928105343,2.67657262625936,0.160632433546093,1.85914218425751,-2.49938464164734,1.08974921703339,-0.574093103408813,-0.108261205255985,-0.136088520288467,-0.449847936630249,-0.159942537546158,-0.878666698932648
455616247025.127,-0.508005367645576,2.6865115408979,0.177582630590667,1.97913634777069,-3.59625220298767,-0.299554467201233,-0.738224923610687,-0.230407983064651,-0.063852034509182,-0.47878560423851,-0.176650732755661,-0.85997611284256
455616247035.141,-0.552141637169643,2.68489017584801,0.202562648015405,2.10000324249268,-4.71241664886475,-1.74641418457031,-0.771551549434662,-0.329505175352097,-0.0302317179739475,-0.513787806034088,-0.20118023455143,-0.833995580673218
455616247045.149,-0.602157303234159,2.67475317321266,0.234024227075944,2.06666922569275,-5.31356954574585,-2.76018285751343,-0.67603862285614,-0.418954461812973,0.0382233560085297,-0.550981640815735,-0.231893926858902,-0.801651060581207
455616247055.148,-0.650235389231385,2.65980015073652,0.267011920550674,1.71376395225525,-5.07883501052856,-3.17494130134583,-0.567125260829926,-0.400501996278763,0.173513010144234,-0.583921492099762,-0.263850420713425,-0.76773601770401
455616247065.159,-0.691213234064993,2.64165316127424,0.296821874005237,1.07259035110474,-4.40808963775635,-3.20507860183716,-0.456001251935959,-0.358014911413193,0.258631646633148,-0.609596312046051,-0.292482525110245,-0.736781060695648
455616247075.167,-0.720996686019834,2.6200368521592,0.3203112882466,0.231898248195648,-3.34847140312195,-3.03526782989502,-0.320082426071167,-0.318820208311081,0.303473234176636,-0.626557588577271,-0.314862042665482,-0.712942838668823
455616247085.177,-0.737754194539069,2.59492325427333,0.336595443469338,-0.618452072143555,-2.13778305053711,-2.76666831970215,-0.184529274702072,-0.262818366289139,0.320069223642349,-0.634882986545563,-0.330275505781174,-0.698456645011902
455616247095.202,-0.741978616643967,2.56696618435721,0.34574641608124,-1.28823637962341,-1.07846999168396,-2.46716809272766,-0.0265031158924103,-0.173582673072815,0.278197735548019,-0.635758876800537,-0.33889901638031,-0.693511486053467
455616247105.21,-0.737690591617262,2.53797792593336,0.349213518139332,-1.64572715759277,-0.441132813692093,-2.16938281059265,0.162350118160248,-0.0566448085010052,0.197020724415779,-0.631985127925873,-0.342158913612366,-0.695357501506805
455616247115.235,-0.733282494082431,2.51166964712804,0.350197319180276,-1.5171480178833,-0.506564497947693,-1.79719519615173,0.342707961797714,0.121678128838539,-0.0165761150419712,-0.628688216209412,-0.343083143234253,-0.697886168956757
455616247125.232,-0.726179947580229,2.49015964556934,0.349391715458848,-0.947133004665375,-0.62793356180191,-1.29590785503387,0.501279294490814,0.238154590129852,-0.275349766016006,-0.623898923397064,-0.34232634305954,-0.702540218830109
455616247135.24,-0.729445026861129,2.48149341865696,0.351851932731754,-0.153046861290932,-0.609144806861877,-0.576930224895477,0.62309330701828,0.35247990489006,-0.422246664762497,-0.625626266002655,-0.344636887311935,-0.699869394302368
455616247145.256,-0.735223941834098,2.48507339533295,0.354436574419309,0.589918315410614,-0.377578616142273,0.301578134298325,0.620469987392426,0.494019418954849,-0.532875299453735,-0.629060685634613,-0.347062021493912,-0.695579290390015
455616247155.262,-0.740572337922062,2.5000919681591,0.354872464684601,1.08528614044189,0.131927832961082,1.25460922718048,0.598917365074158,0.505673885345459,-0.506347358226776,-0.632669806480408,-0.347470790147781,-0.692093193531036
455616247165.27,-0.741731608387262,2.52489149422241,0.350751549941685,1.30603766441345,0.976509809494019,2.23618865013123,0.486499696969986,0.483603090047836,-0.401188254356384,-0.634433627128601,-0.343603700399399,-0.692409157752991
455616247175.293,-0.735169631933446,2.55687946098916,0.340966363948565,1.28505492210388,1.9794465303421,3.07714581489563,0.334570229053497,0.423219382762909,-0.298250883817673,-0.632101356983185,-0.334397971630096,-0.699017763137817
455616247185.293,-0.721058904985294,2.59333624745171,0.326407591824009,1.1794558763504,2.80193376541138,3.66814088821411,0.139284878969193,0.311807543039322,-0.221565037965775,-0.625323057174683,-0.320642381906509,-0.711448848247528
455616247195.301,-0.700448822074142,2.63219942876421,0.309604790176275,1.12530744075775,3.40472769737244,3.93105721473694,-0.190116733312607,0.192301258444786,-0.0933774039149284,-0.613914668560028,-0.30468225479126,-0.728201568126678
455616247205.31,-0.675721997263811,2.67025370033123,0.294161495338186,1.11278402805328,3.6290225982666,3.6882312297821,-0.518867611885071,0.0123800914734602,0.0382288061082363,-0.598594546318054,-0.28993746638298,-0.746740162372589
455616247215.324,-0.650222959566148,2.70312477303175,0.283669800561921,1.11216354370117,3.3992395401001,2.8994312286377,-0.782065093517303,-0.211040362715721,0.16030253469944,-0.581170380115509,-0.279880672693253,-0.764138579368591
455616247225.332,-0.626817929221162,2.72679543502573,0.279829528393629,1.00994205474854,2.84104490280151,1.75022745132446,-0.982037127017975,-0.397880464792252,0.274137914180756,-0.563754498958588,-0.276191800832748,-0.778395116329193
455616247235.354,-0.605664281904242,2.73770658730465,0.281454476834855,0.62055641412735,2.2880699634552,0.42362642288208,-1.08645439147949,-0.537417113780975,0.425273597240448,-0.546907424926758,-0.277753174304962,-0.789775550365448
455616247245.351,-0.584984191689229,2.73405170453698,0.285325735051863,-0.0551624223589897,1.87184751033783,-0.793778777122498,-1.07214367389679,-0.615197420120239,0.483622521162033,-0.529861330986023,-0.281470030546188,-0.800013482570648
